Header,trunk_Accel_X,trunk_Accel_Y,trunk_Accel_Z,trunk_Gyro_X,trunk_Gyro_Y,trunk_Gyro_Z
10.685,-1.00156682126646,-0.0911136403357163,0.0159018665092711,0.0675888209493403,-0.0252091586061765,-0.0246205479167043
10.69,-0.999205589796104,-0.0957051949333987,0.00809345431244495,0.0662186946646879,-0.0454621327902861,-0.0258680991828442
10.695,-0.995061637050091,-0.0999796621416639,0.00133286946672754,0.0821817864241765,-0.0607813681817909,-0.0258680991828442
10.7,-0.998228511241989,-0.0957980195805693,0.00700698738294839,0.0918388751508804,-0.0810521626984643,-0.0258680991828442
10.705,-0.99803756803737,-0.100654684816669,0.0191611209964753,0.111967173839421,-0.0984633101686739,-0.0258680991828442
10.71,-1.00126251861613,-0.101622193069665,0.0307641392074521,0.128530116002376,-0.109505266720414,-0.0240422243191899
10.715,-1.0011271635215,-0.1019414887331,0.0440997798201944,0.156561076888876,-0.119273097821601,-0.0270736001474299
10.72,-0.997169321431935,-0.102826009103573,0.0466371896694162,0.181085820561673,-0.110136352690319,-0.0215857384906979
10.725,-0.999298424647828,-0.114823105043318,0.0357690383271566,0.207698775282097,-0.109075904909265,-0.0199285235093851
10.73,-0.994397253622568,-0.117888487685142,0.0276571036625366,0.222908432975651,-0.0940680602523134,-0.0133332092197573
10.735,-0.997541083894343,-0.115834161284432,0.0195398254913083,0.219096017315701,-0.0780993106568868,-0.00531020323756788
10.74,-0.994462865927027,-0.117639215646747,0.0210808989716694,0.220305414420503,-0.0695406430448608,-0.005485873880126
10.745,-1.00037499093606,-0.116461542981799,0.025134396652492,0.217094147496814,-0.0531625427871257,-0.000407805318934378
10.75,-1.00764976440952,-0.111845162655015,0.0245570199924912,0.215008067393477,-0.0389882953464531,0.00406136459914223
10.755,-1.00424135195965,-0.111399093960989,0.024647124212024,0.208029154046997,-0.00799072571015793,0.00711764767765999
10.76,-1.00619521375468,-0.101953392201729,0.0235324894487262,0.212876951829795,0.0269781719773031,0.00955607949226546
10.765,-1.00540951600134,-0.0969206373513568,0.0162681016767552,0.197599793525292,0.0614185275486548,0.0162843024771613
10.77,-1.00401242191051,-0.0965582323284555,0.00923399822169664,0.18693289510185,0.0840822099404439,0.0184109953614146
10.775,-1.00487197764322,-0.0926814286120613,-0.000104330883500392,0.170024454167758,0.0883953824088211,0.0205562897026539
10.78,-1.00285747201622,-0.0878492255565142,0.00279608160733925,0.150870772420375,0.0893009973707357,0.0202512971687825
10.785,-1.00212482095005,-0.0805871228923676,0.00239913848933895,0.134247258205626,0.0781776906051165,0.0157674326294896
10.79,-1.00090438297918,-0.0816067020053439,0.00915925352534992,0.121453240884042,0.0636993344887415,0.0111622594712434
10.795,-0.998564327021098,-0.0732334632139477,0.0055212434172758,0.118791127436691,0.0346103683114055,0.00711357536415266
10.8,-0.998125662387685,-0.0668235770433292,0.0100012075155542,0.110846414049438,0.0147636117967274,0.00283989288234291
10.805,-1.0031872523202,-0.0705176439378591,0.0191552129698435,0.0980463395018096,-0.00382126966073299,-0.00263731049062308
10.81,-1.00007620382685,-0.0715616339421226,0.0258965866110102,0.0843970228011914,-0.00423291162070714,-0.0036030879732598
10.815,-1.00080607476382,-0.0646887849343183,0.0265147358060013,0.0723810136294974,-0.0117862686376272,-0.00753763019345695
10.82,-1.00257246646212,-0.0674968826044521,0.0341631479010143,0.0650420039892197,-0.00270905026420326,-0.007542684674263
10.825,-1.00531522903369,-0.0689893306030012,0.0360544077492027,0.0620903025981043,0.0124324416167496,-0.00813302459246343
10.83,-1.00377571338628,-0.0694322329522328,0.0431546871694231,0.0625599688559843,0.0169327640732847,-0.0123908231086568
10.835,-1.00030807528157,-0.0773948816686347,0.0479255642647496,0.0650112941341275,0.0258304754846223,-0.0136511586606503
10.84,-1.00798743971901,-0.0671684312442874,0.0493700104123785,0.0659832181554909,0.0220640703935612,-0.0139648973538593
10.845,-1.010151815425,-0.0669511181139403,0.0483783791480895,0.0681181526530299,0.0134017815968334,-0.0172285712484415
10.85,-1.01345680656086,-0.0706976378225658,0.0482018975130352,0.0656667797113694,0.00715381635678186,-0.0179410165394582
10.855,-1.00396268238378,-0.0736867986437966,0.04592871241696,0.0711434794417382,-0.0106131140160078,-0.023403749004412
10.86,-1.01100768323158,-0.0629366677052188,0.0388326563036474,0.0723913446387307,-0.0292326933143034,-0.0148664584293433
10.865,-1.01736293678514,-0.0592057493280329,0.0510527235339714,0.0851633717842115,-0.0465780851223569,-0.00941181361888836
10.87,-1.02290002879991,-0.0602510222805048,0.0596274487754255,0.079782402549608,-0.0411971141605251,-0.00935520826915318
10.875,-1.01401776396123,-0.0514132610017202,0.0738288157918532,0.071157223355383,-0.0288933452664494,-0.00999282929314377
10.88,-1.01410378312062,-0.0559778707957658,0.0720267403200165,0.0714423775042941,-0.0295379855449039,-0.0124474863201388
10.885,-1.00725113807384,-0.0597600605444526,0.0742299628688977,0.0602346725230928,-0.0434809800595324,-0.0166997185027222
10.89,-1.00419770753185,-0.0589532627229973,0.0635782424789335,0.0307637781034593,-0.0647972602074719,-0.0164101723560146
10.895,-1.00239522978096,-0.0622087320328319,0.0592386756361285,0.0101585329459329,-0.0849883927270754,-0.018521064445496
10.9,-1.0008896092844,-0.0564033810323072,0.0496088053160479,-0.00339988602520473,-0.0921700314924651,-0.0225421840528112
10.905,-1.00144009406349,-0.0588997790876528,0.0481987218543791,-0.00764189588145307,-0.106387669079052,-0.0252780340403739
10.91,-1.002931418037,-0.0572879732461459,0.0442881122712062,-0.00374722432005327,-0.126151067709531,-0.0279371612085057
10.915,-1.00153735359821,-0.0620725662960207,0.0518015795587862,0.00502790985846497,-0.139872899515154,-0.0259436290454861
10.92,-1.00504640722898,-0.0588889692726073,0.0558970134950829,0.00133009255932681,-0.146182775497437,-0.0320306345681731
10.925,-1.01068739280875,-0.0625354038811936,0.0607075397518586,-0.0105879336961906,-0.14677443138883,-0.027128172130254
10.93,-1.01042496923492,-0.0643284119880604,0.0607097156853775,-0.017061092604371,-0.143813862536785,-0.0276634044383654
10.935,-1.00990667124298,-0.0658025563101743,0.0635008166390305,-0.0216025701280293,-0.143707459104491,-0.0283114947378635
10.94,-1.01285995230491,-0.0648601494602307,0.0547971109142883,-0.0317942427887308,-0.139174992937989,-0.0255683265425947
10.945,-1.01338497952461,-0.069015475234949,0.049655500074472,-0.0224278050908786,-0.137609337453699,-0.0270466521762114
10.95,-1.01170443493619,-0.0732059008641438,0.0512454583829507,-0.0146818935029527,-0.135220822355278,-0.0268093528071701
10.955,-1.016395890679,-0.0743539187344158,0.0465835155703533,-0.00339894621450224,-0.137622225174237,-0.0234305007380246
10.96,-1.0095500274198,-0.0738309078361419,0.05056236840002,-0.00707925240339859,-0.135788060937982,-0.0289326606677836
10.965,-1.0112844914738,-0.0747316009514012,0.0513987428189811,-0.000303602734076136,-0.132268766757785,-0.0294729769332105
10.97,-1.00568083407975,-0.0774314131043699,0.054241858725515,0.00179751199961465,-0.121181637396797,-0.0319765768945217
10.975,-1.00721991807998,-0.0838597460028005,0.0542558069521154,0.00153010514195833,-0.0850845355639249,-0.0344199649989605
10.98,-1.01006227311331,-0.0769625485181393,0.0549730508577212,0.0088440515100956,-0.0753896759404692,-0.034119973592079
10.985,-1.00834772763659,-0.0807405991360716,0.0543299465882047,0.0112179887783155,-0.0542400071870777,-0.0331982709467411
10.99,-1.0082265046785,-0.0844261815775759,0.0555064203773045,0.0083090285265529,-0.0291022956565857,-0.030487371350531
10.995,-1.00011805974553,-0.084207022459731,0.0582627936957903,0.00397087844775543,-0.0106495008529756,-0.0271034038321815
11,-1.00308411062598,-0.0847563405937665,0.0606673193831655,-0.000942571830380217,-0.00278720318148419,-0.0268480739879271
11.005,-0.998815598543673,-0.0909796163629029,0.0598509558024772,0.00619638471907406,0.00762896308835727,-0.0263159237974862
11.01,-1.00020003611564,-0.095098288065659,0.0559155930735544,0.0145416705369678,0.00888808219466515,-0.0252994274201807
11.015,-0.995242002900654,-0.0957809032977168,0.0531775964427745,0.0161742232739925,0.0114010236349827,-0.0222326108035808
11.02,-1.00258893825617,-0.0975659862022642,0.0516980871449173,0.0186686482903245,0.00208803766168335,-0.0237684122753801
11.025,-1.00161451768883,-0.0979528240152214,0.0565313212908359,0.0155457552513337,-0.0105041995608234,-0.0215745490035271
11.03,-1.00327450361731,-0.0953257778544064,0.0530398766456643,0.0152745269789987,-0.0193159457164159,-0.0249021059111676
11.035,-1.00632229825547,-0.094520086936949,0.0565385860238642,0.00664259914110971,-0.02750559642884,-0.0223067036796173
11.04,-1.00795807624975,-0.0919099719965888,0.0688242079696824,0.0012858932890999,-0.0371000783396864,-0.0234866554699866
11.045,-1.00615795788408,-0.0902064577236984,0.0652894114669556,-0.00219263971824954,-0.043436110907208,-0.0203497554313167
11.05,-1.0032206123688,-0.0925531933862452,0.0621724510878607,0.000868927526650744,-0.0391325821514595,-0.0191828935563257
11.055,-1.00554514181985,-0.0900186525264765,0.0673887666456012,0.00151388719677925,-0.0362302660942078,-0.0246272364136225
11.06,-1.00517975868333,-0.0972747891556189,0.0738220469876907,-0.00151436447399254,-0.0371595302259058,-0.0194671990012259
11.065,-1.00852058792296,-0.0904365409688597,0.0709585378612526,-0.00517423241850597,-0.0320271401716006,-0.0191383814299003
11.07,-1.00373011799379,-0.0884440332461722,0.0688264307437293,-0.00341185408455325,-0.032211058740539,-0.0188530987193738
11.075,-1.0122844284399,-0.0878208281209789,0.0709006190777972,-0.00821370335405529,-0.0434868928545025,-0.0100504246358294
11.08,-1.00076094629201,-0.0833512718253557,0.066208072584239,-0.0015325773594576,-0.0451225299630716,-0.0154914730954071
11.085,-0.998250665522278,-0.0857002339423413,0.0644741295929548,0.00326668710887218,-0.0563084842401722,-0.0191009371958958
11.09,-1.00578003443014,-0.0892140110808566,0.0631099474150626,0.00458823824894765,-0.0594424605369568,-0.0164502600821937
11.095,-1.00302513588871,-0.0835199104844455,0.0602732592521949,-0.00331689183228683,-0.0679289845464109,-0.0100234067249231
11.1,-1.00448930650121,-0.0870217775463148,0.057514521733218,0.00765420386463155,-0.0838763490319252,-0.0102875154909122
11.105,-1.00092550720688,-0.0823241909498254,0.0554037867051127,-0.00207973299523925,-0.0803184625344768,-0.0118007497219961
11.11,-1.00581452873437,-0.0824041321056035,0.0544359276597441,-0.0180913383559879,-0.0792455394217933,-0.0106298957208722
11.115,-1.00222111395311,-0.073131037047164,0.0515201205204814,-0.0265481236643714,-0.0681175307719963,-0.0111954456589991
11.12,-1.00491556488114,-0.0717328114041563,0.0525641158747137,-0.0304985532320666,-0.0555289967959406,-0.007542684674263
11.125,-1.00709920860844,-0.0718473560431893,0.0537796975945688,-0.0375042327143412,-0.0491151409423586,-0.00576722344520058
11.13,-1.00793929031776,-0.0745357578334348,0.0555618613078814,-0.0436415538383844,-0.0481299761730761,-0.00659097099254444
11.135,-1.00789708495529,-0.0715222288377018,0.0623892568217872,-0.0414074086140788,-0.0461118162003621,-0.0040395878743327
11.14,-1.00302660486378,-0.0737639056023954,0.0676140426548997,-0.043652185457799,-0.0365997849392464,-0.00761593557884257
11.145,-1.00776620517591,-0.0757061878355853,0.0731169649166993,-0.0503357922852134,-0.0289290370538163,0.000383862753990902
11.15,-1.00791365464528,-0.078058667734586,0.0748173921819452,-0.0462158848045621,-0.030395837705498,-0.000802442567987593
11.155,-1.01429848097134,-0.074818103633129,0.0738738166283095,-0.0473161464068321,-0.0216705890580377,0.00219312435716662
11.16,-1.00936871772283,-0.0776699619059602,0.0764179878845445,-0.0330404409962086,-0.0185433327272602,0.00223087146878242
11.165,-1.00781641038207,-0.0799559581280444,0.069622764471701,-0.0344321517125521,-0.011903750630365,0.00223087146878242
11.17,-1.00448103084123,-0.0772592136571113,0.0743340832862999,-0.0441809240583786,-0.00959904584309504,0.00671328162362982
11.175,-1.00552385896587,-0.0770150127356796,0.0744687617379076,-0.050969011607488,-0.00694707720647447,0.00713013965445567
11.18,-1.0024513590709,-0.071627085982043,0.0638867519435999,-0.0461844278285087,-0.0118486059615195,0.0061883200479254
11.185,-1.00465204944807,-0.0686272671873177,0.0643891572743725,-0.0430495067913952,-0.00929607440623085,0.00770003893535488
11.19,-0.9985380383872,-0.0665883832132907,0.0661576872384683,-0.0490686603326004,-0.00878140146812033,0.00654606064215821
11.195,-0.997426564770028,-0.0604115377586734,0.0650181595644308,-0.0619623601107113,-0.00205163413681577,0.0071118844035071
11.2,-0.998471061596816,-0.0569516313832049,0.0635351638834194,-0.0662599378734402,-0.00174257983194438,0.00283164424925388
11.205,-0.991697952336436,-0.0539826262771584,0.0639077908729491,-0.0801192318144669,0.00345906150300751,0.00407915654818764
11.21,-0.991010562701573,-0.0502280931422457,0.0624211231957769,-0.0988423814913733,0.0140365250680425,0.00616643909720002
11.215,-0.991960321306548,-0.0499773802448665,0.0574603181612309,-0.101123166514194,0.019938257922062,0.00470368426592312
11.22,-0.986907603791995,-0.0504965674998734,0.0560928584824221,-0.114622742433999,0.0381418055595392,0.000722665463798663
11.225,-0.990678133500638,-0.0485664868415653,0.0603670918743281,-0.116828622842716,0.0521645385205828,0.00335544864826597
11.23,-0.997393852106125,-0.0500451214519499,0.0552520318676616,-0.128502335359897,0.0608630341656493,0.00171426687613524
11.235,-1.0005699573997,-0.0501450783962164,0.0526844358078197,-0.13286116455445,0.0675854095431499,0.00221952904710502
11.24,-1.00676447789293,-0.0477229296635498,0.0531699998820739,-0.144436654685838,0.0671615074896651,-0.00257199913354471
11.245,-1.00455194507244,-0.0446248744549105,0.0532725311526625,-0.147966832925043,0.0764817109059586,-0.0046653083810018
11.25,-1.00567925492942,-0.04672365973056,0.0516281484447063,-0.14816949746546,0.0653767789176527,-0.00536601920907742
11.255,-1.01092723992879,-0.0514409830900578,0.0436119597312099,-0.141448589596958,0.0456813854967754,-0.00510413992485955
11.26,-1.00858196221664,-0.0522383984800827,0.0400287053702464,-0.142306877722927,0.0289037579722988,-0.00695434924980827
11.265,-1.01388253158045,-0.0498659957941146,0.0394340263128159,-0.139078055228842,0.0157985272756693,-0.00750385650520758
11.27,-1.01439129749585,-0.0503210342304772,0.0361792211442307,-0.123837782291143,-0.0118074435462793,-0.00817912784170486
11.275,-1.01053691401185,-0.0497230278972872,0.0373261073775389,-0.114521592518556,-0.0252498924213914,-0.00509929656982422
11.28,-1.005794146068,-0.0468437563048134,0.0383349871917051,-0.0978317106777147,-0.0314382503165027,-0.00480571833446668
11.285,-1.00383424999174,-0.0454269167260571,0.0398765004667632,-0.0776316170529167,-0.0228217291115986,-0.00268601169102438
11.29,-0.998931806816093,-0.0462906988252339,0.0425471468672595,-0.0568954508944954,-0.00798320308288105,0.00128313359415355
11.295,-0.997493450906007,-0.0556330240671325,0.0423796492155672,-0.036343892483459,0.0114630232595154,-0.000197765800430214
11.3,-0.999378045714096,-0.0527253273717113,0.0441468421184469,-0.031460233297604,0.0351981495066201,0.00710601618483107
11.305,-0.998303081050389,-0.061118310763571,0.0374220325880973,-0.0446181997811054,0.0486592312422693,0.0113753114906251
11.31,-0.99620962003203,-0.0534505221118434,0.0238081241710507,-0.0725817770944714,0.0439190351581294,0.0102146568767137
11.315,-0.989085458345249,-0.0534424393602392,0.00477607964509183,-0.107723747498726,0.0395743681181921,0.00956103950738907
11.32,-0.986994764653138,-0.0485626422598362,-0.0156643473191882,-0.126029265556916,0.0352565665494567,0.00685648826506086
11.325,-0.992025218180228,-0.0440622078918555,-0.0175007215033392,-0.138393195830231,0.0304673928023703,0.00105530092292803
11.33,-0.994372303471753,-0.03814269212489,-0.013024782396288,-0.13505207193907,0.0363219083073682,0.00068988894744832
11.335,-0.997076535266209,-0.0353685822648581,0.00243651556260344,-0.135299561630471,0.0395147949457169,0.00341989842158758
11.34,-0.994111287486441,-0.0388154892115909,0.0293795383513012,-0.121956136098891,0.0767900214744839,0.00607177203555597
11.345,-0.999976981184479,-0.0344539987252705,0.044343761265114,-0.104711788687132,0.117419721397064,0.00833934545516968
11.35,-0.995064152639809,-0.0316346618644107,0.0570243792172443,-0.0874945752791657,0.176370672709867,0.00993512915777584
11.355,-0.998554084767533,-0.0276921813346214,0.0466214286728945,-0.0560110592088035,0.198284936728359,0.013216092754175
11.36,-0.994940685156969,-0.0374074540530364,0.0266058444414529,-0.0360334690845011,0.186495977725206,0.00893702472336365
11.365,-1.00438257806128,-0.0424521348539564,0.00551994042941991,-0.0411971269143701,0.16856052892469,0.0119802794403374
11.37,-1.00750515978205,-0.0462250193246308,-0.00582800824054826,-0.046404039691403,0.145981329472232,0.00779566224498786
11.375,-1.0146961166691,-0.0457932773602325,-0.0048783972697872,-0.054642998637172,0.115403576173927,0.00225140291828933
11.38,-1.01688972720777,-0.0538513289836503,-0.000244204340007744,-0.0596310221384969,0.0847280175418282,-0.00346685848244549
11.385,-1.01521812989949,-0.05244365266702,-0.00303529509196191,-0.0541756047416962,0.0472921448269766,-0.010562789734561
11.39,-1.01743953001962,-0.0542694402622804,0.00332226118890758,-0.0469176014979965,0.0157645275607339,-0.0129821259526322
11.395,-1.01912287839701,-0.0536053014567622,0.0133976777131384,-0.0510145587210248,0.0101950069293214,-0.0209760181619559
11.4,-1.01883271090171,-0.0522063289876985,0.0310778397240979,-0.0598580877912856,0.0227674348347914,-0.0204068303738402
11.405,-1.02059897424224,-0.055231922037958,0.0511210359693824,-0.0625784356210641,0.0513275151822092,-0.0167520347919055
11.41,-1.02246257553672,-0.0602809851597145,0.0622893872237081,-0.0653670998974119,0.0994456591428719,-0.0103254389530416
11.415,-1.02073155038662,-0.0623167554136444,0.0580864784730127,-0.0718581644626838,0.153355233289063,-0.00506410903471522
11.42,-1.01898461426006,-0.0610781959049841,0.0398213141871729,-0.0779850757884593,0.177477451486626,-0.000584552196235331
11.425,-1.01412547226867,-0.0599849241745058,0.0222749279892573,-0.072463813160755,0.18299871411433,0.00458735255530569
11.43,-1.00986958310329,-0.0560624053157293,0.0101643466244474,-0.0669782196598951,0.178617664316398,0.00801461748809144
11.435,-1.01773457134155,-0.057685328014458,0.0129882312107836,-0.0536570447214798,0.157108952113913,0.00593488911625958
11.44,-1.02084795239604,-0.0585329799850219,0.0113959369810608,-0.043969694759534,0.155275264737917,0.0183937835914926
11.445,-1.01675280820846,-0.0525175690765827,0.0192424342218814,-0.0329222933150147,0.156762278826776,0.0223976282398544
11.45,-1.01733481715081,-0.0488036210999548,0.0159054761938865,-0.011357683513302,0.158331876635962,0.0245049089026285
11.455,-1.01006260423099,-0.0449539385473026,0.00365719605484634,-0.0143294057265575,0.160443189548332,0.0315031183755337
11.46,-1.017752852811,-0.0430717682899792,-0.00577725246195829,-0.0232146393895968,0.155827254185257,0.0318030176762858
11.465,-1.01801169809131,-0.0411687650020686,-0.00859221495596248,-0.0288953754127541,0.150360989032099,0.0352498974755105
11.47,-1.01417750039232,-0.0427316314903199,-0.00952343929981114,-0.0420702239009503,0.136975420582907,0.0349010353267162
11.475,-1.01067509644768,-0.0488911521076663,-0.0134325360038808,-0.0424718804771962,0.131151397578213,0.0364359345229833
11.48,-1.01268216033494,-0.0378640628383206,-0.00515608392041566,-0.0536745734779494,0.125664964987222,0.0446951122889763
11.485,-1.01424333838098,-0.0405823139953233,0.00158761899127733,-0.0602541996609735,0.110904824585582,0.0414217775658194
11.49,-1.00804754584214,-0.0366617261877798,-0.00293623020581201,-0.0674037183185194,0.0806361991246627,0.036165333911676
11.495,-1.00698670440046,-0.0407074233599793,-0.0089264290726562,-0.082662022267673,0.0555904431347557,0.0327974366686376
11.5,-0.99631408931086,-0.0415449352519791,-0.0111767666619947,-0.0939561480293053,0.0339243458613062,0.0211954833207422
11.505,-0.991603706817553,-0.0400710618328534,-0.00366068025932834,-0.105150327848173,0.0194036457020621,0.0176424890774998
11.51,-0.990937331299551,-0.0345610063351254,-0.00356332008178307,-0.116464397025246,0.00804494678701642,0.0174530175271134
11.515,-0.991838120799308,-0.0336475369440034,-0.00633009078411277,-0.125514303986148,0.0101660841488266,0.0156807270881166
11.52,-0.989298841929773,-0.0270674293790081,-0.0123488464742515,-0.117334702860257,0.00408565253019333,0.0111269539063672
11.525,-0.99084224794336,-0.0267150569098941,-0.0108636240233184,-0.115120873510063,0.00351187126162864,0.00719178116841912
11.53,-0.988240272378472,-0.025938749903005,-0.0137547761665754,-0.116665087151377,0.00555286559541209,0.0058959536254406
11.535,-0.990509382435486,-0.0302176505567803,-0.0159574075225348,-0.101109279947855,-0.00935287152622742,0.00223122537450187
11.54,-0.99322604970735,-0.0308432851314279,-0.0174742092348437,-0.111707157258823,-0.0113477629231607,0.00618835976003873
11.545,-1.00200446129742,-0.0328449755371114,-0.019399386389249,-0.121190004683932,-0.0251433208919016,0.00354426043484195
11.55,-1.00390867468656,-0.0360175113628951,-0.0213034869333938,-0.127903765544501,-0.0351705433767168,-0.000212516635656357
11.555,-1.00003712999677,-0.0373756544768989,-0.0167461126364323,-0.140146181501891,-0.0447444719881581,0.00343373557905807
11.56,-1.01001492392417,-0.0406698585015792,-0.0117476495226523,-0.124407400978509,-0.0475526316197971,-0.00203059989527739
11.565,-0.998196548165687,-0.0442336191697246,0.0022851015327112,-0.113917242062094,-0.0471495060338175,-0.00446944604847817
11.57,-0.998973799886637,-0.0486911896802709,0.0021962246635802,-0.111859290585069,-0.0425014263323477,-0.00151555567639724
11.575,-1.00592993958087,-0.0471652790006757,0.00798679555168297,-0.108466667920973,-0.0374800021356599,-0.00262786275086242
11.58,-1.00041916705015,-0.0479896473080812,0.00696638132794624,-0.12661273753362,-0.035122050211009,0.000379417061454394
11.585,-0.996369904578817,-0.0464091986871681,-0.00185776723914375,-0.139676392208742,-0.0292572527651725,0.00164821245874294
11.59,-0.991648716846781,-0.0420796857332463,-0.0159045731512415,-0.140446565644923,-0.0350085720419884,0.00369645441363597
11.595,-0.987234965176964,-0.0414704208443181,-0.0303872184329039,-0.137795633913501,-0.0337989948746357,-0.00137362626354233
11.6,-0.977140729041756,-0.0388738795986025,-0.0336007646912089,-0.12954529836486,-0.0416815419976689,0.0058959536254406
11.605,-0.972174782854042,-0.0438875170538183,-0.0293576519836576,-0.127095092778257,-0.0508906021714211,0.00875033732217378
11.61,-0.976486176058355,-0.0459361811693731,-0.030943379702923,-0.131650820374489,-0.0578648554559525,0.0128762092723943
11.615,-0.975851181428686,-0.0504910385909905,-0.026235229793585,-0.124358543204745,-0.0740333368124444,0.0132261216640472
11.62,-0.983697973974588,-0.0613602999828098,-0.0258437716375547,-0.130057024008483,-0.0773576849620751,0.0159273105018852
11.625,-0.98724513713667,-0.0706592414294681,-0.0240310757830575,-0.132989263829359,-0.087541438639164,0.0205562897026539
11.63,-0.993151913979968,-0.0725633034783118,-0.0197223122589963,-0.13009712987057,-0.0857620325863015,0.0214459927290851
11.635,-0.999100702842965,-0.0701981147415724,-0.0178774100336531,-0.132859820720905,-0.0887440958966533,0.0169165782034661
11.64,-1.01946302999265,-0.0682957207381877,-0.0175584248004225,-0.119757758769617,-0.0729303455088648,0.0205562897026539
11.645,-1.03049800946643,-0.0647605390748278,-0.00999995570659144,-0.112809109253836,-0.0613695595622853,0.0193616112959927
11.65,-1.04556200974576,-0.0585986590511206,-0.00292966343692527,-0.105730389348984,-0.0443606552329422,0.021723875881683
11.655,-1.05459841639163,-0.0542919838097029,0.00793553800158264,-0.107201916920391,-0.0253250646755256,0.0266422505521324
11.66,-1.06219889573054,-0.0540222995283404,0.0185884465433305,-0.115391617643384,0.0100601904869302,0.0251232926724267
11.665,-1.06611117258802,-0.0474165257166572,0.0237233617580578,-0.126818295834178,0.0328632866976404,0.0284837408982274
11.67,-1.07161502582112,-0.0425051207423752,0.0246954203136648,-0.128843753162972,0.0469290333037196,0.0245850464163501
11.675,-1.0738716562492,-0.0335551814075408,0.025078581989412,-0.128003880569966,0.0687174859042388,0.027850156259348
11.68,-1.07346464983615,-0.0388787375164923,0.0190114009121776,-0.145089462399483,0.0794141833968339,0.032420193296985
11.685,-1.06280594412177,-0.0445180126464629,0.00965904631276703,-0.150958654459715,0.0906345374794005,0.0375643006683521
11.69,-1.05685212726847,-0.050633270881644,-0.000885685975950283,-0.160017219513076,0.09571273624897,0.0419106093758873
11.695,-1.04845973288197,-0.0609477126284271,-0.0101038469169042,-0.158515132410518,0.098165555163976,0.0547696239442511
11.7,-1.04062225068407,-0.0593681409568679,-0.0130732766937814,-0.142122508172485,0.10644620891766,0.0626523795966639
11.705,-1.02526293132004,-0.0660594471093089,-0.0212401211036695,-0.124104944378929,0.104159229702665,0.0699558881721744
11.71,-1.01445272225694,-0.0737611032765519,-0.0284017850706135,-0.110035972864059,0.111219117052269,0.0754763611289698
11.715,-1.00246563688476,-0.08209019705363,-0.0299228375135341,-0.102381151325344,0.12735438920446,0.0755427413498017
11.72,-0.988114193071611,-0.0880390502786867,-0.0311838407305521,-0.0791179537773132,0.127429197276977,0.0754849506887852
11.725,-0.979792499512454,-0.0994204026571637,-0.0331558410539109,-0.0750010733500959,0.129377499011849,0.0750807498589994
11.73,-0.967717590795158,-0.10500158129387,-0.0265508428212953,-0.0732781326937748,0.123860744215308,0.0742618167626277
11.735,-0.958797478487998,-0.116483591562639,-0.019780554417931,-0.0742311775684357,0.10922448831935,0.075532540678978
11.74,-0.951504360884538,-0.121490232930824,-0.00814274192768307,-0.055242124023427,0.099204363742497,0.0654799570280366
11.745,-0.956443829230965,-0.127752471863402,-0.00197650660373378,-0.0476874041165454,0.0900486734803786,0.0595396214444958
11.75,-0.956666703183395,-0.134892097153845,0.00206126693121025,-0.0318213870332596,0.0892547446853818,0.0508196873446166
11.755,-0.961469091322475,-0.140534250477307,0.00565479029582572,-0.0181335097779477,0.0968842953692275,0.046241961367962
11.76,-0.960724069728929,-0.147319035120889,0.010462641305126,-0.0204288649188127,0.124453428953491,0.0328209831199981
11.765,-0.968494842789485,-0.150373859996237,0.0162091031383413,-0.0175376856389064,0.15660877918807,0.0243052324310814
11.77,-0.969893948030704,-0.155119912516211,0.0189682393003201,-0.000764966815171309,0.191282745949121,0.010299964276065
11.775,-0.972392562698563,-0.164946156851593,0.0231916847039647,0.00151838081774639,0.215380395816328,0.00224884595265098
11.78,-0.967644871621723,-0.170828779258658,0.0297727521693732,0.00853014537862762,0.242943905455285,-0.00206202390800018
11.785,-0.967948201030263,-0.178129803424898,0.0306980339154073,0.014733926855286,0.24653736528438,-0.00624812444534293
11.79,-0.971594806004629,-0.180839406292435,0.0248495329267173,0.0324241112114921,0.237438014137006,-0.00876437872648239
11.795,-0.976627154475596,-0.187842700252429,0.0256817680495201,0.040589823718852,0.224033350792622,-0.0136267745752498
11.8,-0.990296822874816,-0.186466408524803,0.019826143054269,0.0565006722631191,0.205364219872858,-0.0264736819552374
11.805,-0.98709421109624,-0.193066867672717,0.0239904900307308,0.0460867167489833,0.194268357033971,-0.03671120706368
11.81,-0.988539580061234,-0.189117263564749,0.0248602762176054,0.0502911351598007,0.180190721158842,-0.0408564910298411
11.815,-0.98321876876165,-0.187118385323741,0.0281985130753336,0.061405778312362,0.165339974406205,-0.0478586070239544
11.82,-0.974969452498984,-0.178327042119047,0.0192909334388518,0.115658294890769,0.148570635404927,-0.0466481152405511
11.825,-0.967366315327681,-0.173654443506629,0.00954853301843835,0.171295465536644,0.147511287007899,-0.0399861841345561
11.83,-0.96135571181089,-0.174978678754006,-0.00299534105321132,0.250581035827506,0.149501039707125,-0.0386790227773484
11.835,-0.967673539260338,-0.177017566167811,-0.0200590557791246,0.315234590913205,0.162827534365487,-0.0332309364081123
11.84,-0.970439499341018,-0.186677916211753,-0.0239584070339446,0.375694864627153,0.174233453651562,-0.0371240447786573
11.845,-0.973958554817294,-0.196574786980612,-0.0211751920593807,0.415450160178568,0.170257921045929,-0.0471495760643855
11.85,-0.981243461096158,-0.205755591595542,-0.0128365842642307,0.438805219274991,0.152634521212827,-0.0554753645614368
11.855,-0.986278822101323,-0.215540280244098,0.00163162830920905,0.444961307110548,0.147023916244507,-0.0660732734612845
11.86,-1.00203388330815,-0.219524038758826,0.0130837777034429,0.446883869806756,0.165436625729471,-0.07557944721829
11.865,-1.01699948712372,-0.214395107463431,0.0172932693556457,0.432380749428807,0.20993735876398,-0.0844509002623238
11.87,-1.02372092104655,-0.202540068057275,0.0201620259774313,0.394905559357695,0.277893899816151,-0.0851403881755759
11.875,-1.02434738756346,-0.196449305536574,0.0207410803954494,0.334244986150123,0.357823972266315,-0.0760292791699325
11.88,-1.03244950791565,-0.17116290214648,0.0131106920788593,0.283392324409586,0.460100436019156,-0.0684861583088475
11.885,-1.03173336315034,-0.152567972981846,0.0135662968844969,0.24667394397108,0.53167169640021,-0.0569919855539907
11.89,-1.03084319234269,-0.138814836142644,0.00876391887027528,0.211719672768042,0.579429421932772,-0.0585284422551843
11.895,-1.03303652776296,-0.120407224071341,0.00308152713164255,0.183760699044159,0.615856923758449,-0.0612734266276171
11.9,-1.03595955515948,-0.103662177869007,0.00934571199297143,0.176647945457975,0.622728498271076,-0.0643346334579146
11.905,-1.04058975673823,-0.0996858859745777,0.0180145333881437,0.158657922932375,0.579264501690443,-0.069126619285138
11.91,-1.03853180924402,-0.0979806657205478,0.0284721992891346,0.148848943576963,0.514663642524338,-0.0758769908443088
11.915,-1.04348660663906,-0.107993707265684,0.0326311424286985,0.142044097176788,0.452800989067529,-0.0820306986653831
11.92,-1.04004286009577,-0.118513008123778,0.0480719663542384,0.134067606110611,0.394413700431718,-0.0881747977351381
11.925,-1.03595949518859,-0.121530132931723,0.0511751477367314,0.135800367686997,0.327212491478335,-0.0959989783736702
11.93,-1.02640454822331,-0.133845847396306,0.0452101622801015,0.146785177854227,0.284768000725568,-0.107611291674303
11.935,-1.01644913654391,-0.143698866719078,0.0350751138374459,0.151766006044686,0.263182676481366,-0.10167020701124
11.94,-1.00383823277934,-0.154208025220307,0.0286294204137516,0.169285471786532,0.260049883446041,-0.108647515964992
11.945,-1.00674641165263,-0.166513047871284,0.0158213905255799,0.196247336045983,0.261794023398558,-0.108920276272814
11.95,-1.00223523889024,-0.173727627215056,0.00689736346054276,0.218494614132369,0.27549373767979,-0.114694781057778
11.955,-0.997772421608596,-0.19534599588191,-0.00437702718680041,0.229931557215699,0.299602408475208,-0.10049342530495
11.96,-0.995987187285601,-0.185929219321574,-0.000693147428424407,0.278977986221445,0.328677944840067,-0.112010850478874
11.965,-0.980984299382726,-0.177756846834185,0.0141162901058259,0.313073777503111,0.344953862767127,-0.103428729608555
11.97,-0.976570258219615,-0.168035558526036,0.0237162040575419,0.353867611678729,0.376354116241072,-0.0958225645307944
11.975,-0.985494347366326,-0.154371708114741,0.0383427523049042,0.399930440273285,0.402481613695815,-0.0905904591691814
11.98,-0.989433960342993,-0.155840389920797,0.0459068173569102,0.427283586056013,0.430180587458777,-0.0823546977919054
11.985,-0.998244143549713,-0.153195439320563,0.0526119513038705,0.439285473712228,0.451705651875329,-0.0687397281945495
11.99,-0.999687685268868,-0.148712131035297,0.0394762243339421,0.439893601149873,0.471454181753596,-0.0586452191875525
11.995,-0.998671138466776,-0.143456985391468,0.0449733482242912,0.402212865279828,0.45366164880459,-0.0454130396974404
12,-0.992523950172037,-0.133427958758843,0.0333936903405184,0.355914203216671,0.431137895713204,-0.0396238320953652
12.005,-0.992399392934117,-0.123529554570009,0.032233927199479,0.318821468374826,0.400819283413361,-0.0388862534254617
12.01,-0.994042987066533,-0.102292399685891,0.0346965987814648,0.295942276716232,0.361840914998895,-0.0417932465993623
12.015,-0.995716019331771,-0.107183083163241,0.0400582975351343,0.29836880434873,0.334052685016937,-0.044168248906444
12.02,-0.998391385417604,-0.110939882800324,0.048028932998532,0.323761327021754,0.296865945941317,-0.0488448577350032
12.025,-0.99757329907716,-0.109666835234241,0.0592733914780491,0.352868015068102,0.246804330693206,-0.0424432936916374
12.03,-0.988057692418675,-0.11249204700106,0.0556662692109641,0.367045336533444,0.216903108088271,-0.0342560674661295
12.035,-0.976582446770179,-0.127657464435261,0.0392422851113118,0.365579647954485,0.195897193674489,-0.0270913764960446
12.04,-0.974795842530909,-0.134746951226062,0.0298358586686964,0.358924016314049,0.17651651256709,-0.0161805154011933
12.045,-0.977627653673804,-0.145194979652986,0.021794810630509,0.349258529576564,0.158753258610778,-0.00876437872648239
12.05,-0.981185499107705,-0.149289552788227,0.0155971869202535,0.336815761602391,0.144028456942926,-0.00698786967010336
12.055,-0.977097906165848,-0.151560271447043,0.00735830871407553,0.332599389793011,0.121462475956457,-0.00267473470117815
12.06,-0.981679336388392,-0.150905513520213,-0.00458390833653009,0.301872273052064,0.111003449780708,0.00100917741656303
12.065,-0.984155003397605,-0.153711499524027,-0.0172675699094263,0.276679661783272,0.0930076514275865,0.00100917741656303
12.07,-0.987192834317041,-0.153623449505019,-0.0228855378183964,0.251235287583271,0.0608378807619603,-0.00349898486321097
12.075,-0.987723925938705,-0.154397115576674,-0.0262173766870583,0.238519786693641,0.0272837598975701,-0.00754620644417995
12.08,-0.978307206851893,-0.146604921156792,-0.011512313368062,0.233052540271742,0.00111408314592503,-0.0156926778063178
12.085,-0.979638071838013,-0.13909003118755,0.000267542309967138,0.226472448786692,-0.0032862082105127,-0.025153024317475
12.09,-0.97493561681818,-0.13465245636852,0.00803110277366704,0.221418902277946,0.00516753114459547,-0.0337042563944879
12.095,-0.974664294164032,-0.129199481564101,0.0145173252075776,0.217752365331366,0.0199722314377114,-0.039306947970421
12.1,-0.95635481302031,-0.127486101103943,0.0141101573007122,0.210065088107369,0.050009805840186,-0.0419670010902917
12.105,-0.953674179210388,-0.12458586213694,0.000385025988227438,0.205638695362233,0.0697360374253166,-0.0455248546093506
12.11,-0.946308532385863,-0.12569544963418,-0.00950826830038037,0.185510059392854,0.0942927254148985,-0.0433108299227533
12.115,-0.944175904691844,-0.137866182449278,-0.0162283263788577,0.179885007676979,0.107903553543406,-0.0368820178736412
12.12,-0.94980532981584,-0.138821492740373,-0.0171589376608502,0.174757174832412,0.134297256538119,-0.0377932424792016
12.125,-0.953049132637292,-0.142679667669048,-0.0133394528379567,0.163607419485801,0.153564033062255,-0.0350905442326507
12.13,-0.96465498400933,-0.148853589654752,-0.0108180746641134,0.143118839056293,0.172791097967824,-0.0295848747622105
12.135,-0.96946685193936,-0.14505743259498,-0.00957781587355092,0.118991436497596,0.190870922673361,-0.0234734309800761
12.14,-0.969754058150045,-0.148546646807947,-0.0207872660248529,0.0948201102292431,0.203513459300499,-0.0168435927215496
12.145,-0.97174986048122,-0.146083472724684,-0.0235541223025996,0.0706511199708748,0.206434684763712,-0.007542684674263
12.15,-0.975291187755725,-0.153095727423483,-0.029480965517849,0.0371012494680394,0.205180197402519,-0.00588263346717405
12.155,-0.979599557406352,-0.154274029462911,-0.0316049488521117,0.028699227348812,0.198951208444134,-0.000828644210593915
12.16,-0.982928298072128,-0.152111408465385,-0.0318244014183333,-0.00591358577768082,0.182795418563905,-0.00236279395316536
12.165,-0.988655667451811,-0.156180474514874,-0.0304646488735118,-0.0191007606865904,0.166313367291148,-0.000212516635656357
12.17,-1.00307336319544,-0.15833180512776,-0.0236096275135641,-0.0334474095384783,0.140278555557232,-0.00719179830041907
12.175,-1.01251768328168,-0.156151383812631,-0.0114633281918579,-0.0578623133962215,0.133585274219513,-0.00379543568543478
12.18,-1.02008156256169,-0.161108824505072,0.013190532055518,-0.0602607430269493,0.0897623756557413,-0.0132803321159118
12.185,-1.0235467181161,-0.156689464167369,0.0241673979923637,-0.0533735022023066,0.0776260980037047,-0.0195818983166901
12.19,-1.02560606506932,-0.154589816187029,0.0418014790593373,-0.0434469473748709,0.0707103726961571,-0.0145462432156822
12.195,-1.03251417030657,-0.159942687870936,0.0509896901165887,-0.0317689874830573,0.0828520349529807,-0.0125780247173065
12.2,-1.03330558022254,-0.168368259067228,0.0608415023534418,-0.0228254261637906,0.0922131744211741,-0.00728259293629246
12.205,-1.03192275426255,-0.169454830646732,0.0609004175881303,-0.0190978323813696,0.0991800427976208,0.0126384628681579
12.21,-1.02649608499449,-0.174091382553748,0.0604014219103411,-0.0262981114231501,0.0930842794203834,0.0396219831152801
12.215,-1.01987164578806,-0.178803503935582,0.057676769746849,-0.0322350774608173,0.084871245795365,0.0575873384729296
12.22,-1.01923560448947,-0.178308514679343,0.0437660980933526,-0.0313887397899074,0.0687440196231423,0.076779180313193
12.225,-1.01243870406873,-0.18178375557018,0.0379577333078217,-0.020974431432021,0.0498084093551087,0.0855778550701443
12.23,-1.00703183916258,-0.179462612968112,0.0335558939777763,-0.0264744984382601,0.030183597495472,0.0974124538504101
12.235,-1.00096537567459,-0.180622399786657,0.0318051614944425,-0.0466396237965805,7.4403166262102e-05,0.110639168145508
12.24,-0.994957541875357,-0.17089275679393,0.038984201700928,-0.0600117403799642,-0.0382904736605134,0.116480952186478
12.245,-0.989124659087682,-0.161904372652703,0.0356618131102831,-0.0763735639764087,-0.047590259503793,0.127335928298093
12.25,-0.976572502101984,-0.153285332747842,0.0329909508483291,-0.0855457152289294,-0.0497224455335412,0.13273997165884
12.255,-0.971647143580295,-0.138996949105155,0.0375094154199651,-0.101133190540948,-0.0520985537941376,0.132963177428633
12.26,-0.972856398460436,-0.126350197122963,0.0417751085216937,-0.111824850542337,-0.0461587426822549,0.13771502631814
12.265,-0.977416504430495,-0.120161406210666,0.0346529524248674,-0.139252044947537,-0.0456530654992477,0.130474917746301
12.27,-0.978176456729868,-0.109490040329925,0.0289203837581407,-0.168159750618181,-0.0526324947581121,0.131769895093198
12.275,-0.985169452141824,-0.107527861014827,0.021835897145242,-0.178185557749102,-0.0554995409740822,0.129454596001645
12.28,-0.991640210663357,-0.106142277083519,0.0274149506440457,-0.188676009311111,-0.070311699698806,0.121129696832268
12.285,-0.984828135432817,-0.116463578398538,0.0284017424565027,-0.201046669189416,-0.0935816603734144,0.100584413617746
12.29,-1.0022744727589,-0.11935056169937,0.0249084207837232,-0.202909491203289,-0.117385669192787,0.0689620957776109
12.295,-1.01373692103535,-0.119369526659089,0.0515972601134468,-0.242595728921638,-0.141877543931378,0.0822652391640625
12.3,-1.02087915802127,-0.12680430133459,0.049233311490107,-0.243309707522142,-0.196890023857561,0.0717105199696838
12.305,-1.0243443065611,-0.141987557150702,0.0494086006568467,-0.276728645332395,-0.233764996558329,0.0775783969856087
12.31,-1.02475705815417,-0.143863626100277,0.0401918260685135,-0.298531099356997,-0.272985146619661,0.075824478305933
12.315,-1.01494843932832,-0.148989401342578,0.0388616278530466,-0.30846036837523,-0.308461166761833,0.0779759287834167
12.32,-1.0149461480614,-0.152715329079519,0.043842530675232,-0.308796525001526,-0.343854456500731,0.0700508509016273
12.325,-1.01297368359037,-0.153517221201863,0.0508251369286252,-0.319323828451869,-0.383592257879512,0.0726324166812885
12.33,-1.01006992404751,-0.157104278478543,0.0630243922727555,-0.326729698748316,-0.434783377594885,0.0732348947548657
12.335,-1.01187628577576,-0.151054273801411,0.0855179459611056,-0.330340622641514,-0.479341291340942,0.0783048626828757
12.34,-1.04113867116567,-0.147536854914145,0.112910410522011,-0.319735684448683,-0.536195776240231,0.0732573926592762
12.345,-1.082869752495,-0.126997665417241,0.112755942087336,-0.324135373063343,-0.569522468650377,0.0770634235970485
12.35,-1.1508515969195,-0.0947722502598747,0.0897426865019526,-0.369304362753665,-0.567627352041814,0.0801869936490873
12.355,-1.22715981894171,-0.0699295419115617,0.0497656614481847,-0.431556036761917,-0.531472691929046,0.0852534590482716
12.36,-1.27633864118806,-0.0643684374530315,-0.0132444121184503,-0.507137152841939,-0.490381037876506,0.0877494886517525
12.365,-1.28025620544849,-0.0678494376876731,-0.0646089502337865,-0.523853360839319,-0.476383835987219,0.0894672024301797
12.37,-1.23908641222853,-0.0841377543101239,-0.106556653555788,-0.468805123959572,-0.489669722951016,0.0989670365191704
12.375,-1.18516553701043,-0.102760547065078,-0.11200951018868,-0.323785439016775,-0.314734263322818,0.108108160108604
12.38,-1.11841632350091,-0.148959056327278,-0.0940323383377643,-0.0845442990514474,-0.645741846399584,0.128397712763007
12.385,-1.07156508720554,-0.228050218611951,-0.0757929906362872,0.129141216545753,-0.796695352152498,0.171975674619167
12.39,-1.04396134848388,-0.258759075792725,-0.0798138052298771,0.198813904414332,-0.881082759899212,0.172108048892588
12.395,-1.03277341972441,-0.282507740995787,-0.108271422776393,0.159024929370002,-0.907245694979168,0.159855842896234
12.4,-1.03161709626036,-0.282677568311617,-0.130340024202679,0.0746304958586969,-0.84832242278397,0.137858003591692
12.405,-1.01042741350694,-0.276964742985641,-0.139884692950683,0.0332791060839533,-0.747340554108566,0.0921077585621855
12.41,-1.01430394958845,-0.256096255264759,-0.130757659865666,0.010794858154023,-0.643685715796981,0.0575412525709349
12.415,-1.0303123375345,-0.235012159929432,-0.106549357238867,0.00760068917689106,-0.553903728504564,0.0139527955933234
12.42,-1.03219063097259,-0.217006815056699,-0.0887020158575596,-0.0238611115761969,-0.468686062743519,-0.016260445076079
12.425,-1.05044325887897,-0.198793811471074,-0.0794222554822865,-0.0829393467518775,-0.407343549219775,-0.0314752676191567
12.43,-1.06870567614507,-0.178625005708842,-0.0648980859018729,-0.146117362434533,-0.384585429177593,-0.0452914257326389
12.435,-1.08279332742846,-0.159615720263588,-0.0438524761330258,-0.213514367681357,-0.412520303338221,-0.0283080956045502
12.44,-1.09844766359559,-0.142892772916701,-0.036320791433384,-0.278281510659054,-0.465081910510048,-0.00632099062204361
12.445,-1.1003737005283,-0.124961453600796,-0.026259686992862,-0.316835017165943,-0.504933333424005,0.00335460406844493
12.45,-1.10327641459543,-0.118769799952914,-0.00866227813917818,-0.340588871070072,-0.501610969048031,0.0242355231568426
12.455,-1.10704479382848,-0.113946790012103,-0.00429895265041789,-0.309207109306274,-0.499998491171029,-0.243805162586827
12.46,-1.11947604728351,-0.112235718644547,-0.00603931582265748,-0.250229607088125,-0.460905543697163,0.0584691278182307
12.465,-1.122491445743,-0.1183225708838,-0.0160799504764096,-0.188856465233853,-0.450761675389466,0.0674297981612667
12.47,-1.1388448702902,-0.122836143685306,-0.0317329152621637,-0.149430961675476,-0.470389663512369,0.060356079019053
12.475,-1.14321478459618,-0.126193256463856,-0.0458146107480267,-0.123235847684227,-0.495315224590852,0.0382037719469581
12.48,-1.1492993312358,-0.118577540758728,-0.0453850908813511,-0.112073119050603,-0.506597968139306,0.0217443439996125
12.485,-1.14828453090084,-0.108162005020779,-0.0348226963590217,-0.0943641104647618,-0.51232295694512,0.0031848722980089
12.49,-1.14798631633702,-0.0949718592482185,-0.0278873126498256,-0.0774026437330746,-0.5128556480331,-0.0205473631549246
12.495,-1.13065110817535,-0.0871456391712992,-0.0266430685921449,-0.0696874203567567,-0.491194073264089,-0.0352128766451953
12.5,-1.11994160628643,-0.0734830860922499,-0.0275296878821772,-0.0708097019429023,-0.454123016917741,-0.0580497831526248
12.505,-1.09498057910144,-0.0600830763535261,-0.0251808624688132,-0.0794750192623756,-0.410313707264446,-0.0776484762471547
12.51,-1.0778097777168,-0.0456988560951464,-0.0322281128256225,-0.0910942994902086,-0.394233939554634,-0.0981461704531921
12.515,-1.0594830804084,-0.0283340443566948,-0.0373410493271943,-0.1138135103049,-0.394858266610698,-0.120151612774144
12.52,-1.03949017648323,-0.00805113444906071,-0.032635031110926,-0.125426071700491,-0.412569455880044,-0.117960280763136
12.525,-1.00707787846848,0.0210751418778126,-0.0293700208372121,-0.126511761792847,-0.430937248398137,-0.116904203730083
12.53,-0.990794900411206,0.047919616263549,-0.0266156910276575,-0.133784684940466,-0.445497930049896,-0.0990775289480891
12.535,-0.962725418382298,0.0711192764029824,-0.0228886742745722,-0.13014355402826,-0.448601344775327,-0.0872289327422461
12.54,-0.931714014109735,0.0858345827943584,-0.0261841617759005,-0.123504035120256,-0.449777056848831,-0.0704631838859664
12.545,-0.897337136723885,0.111730135969265,-0.0221068510537538,-0.131331525125984,-0.437779020098999,-0.0566672956978474
12.55,-0.897779269564272,0.11823454237919,-0.0307609993351705,-0.139062413350896,-0.43400586460558,-0.0380280606543701
12.555,-0.879598373637871,0.135697565024258,-0.0364182322807231,-0.181964230683476,-0.39167485726901,-0.00834155617795617
12.56,-0.856192697273636,0.140267439372204,-0.0262220483221605,-0.230649187190854,-0.325946323619833,0.0262849363357665
12.565,-0.848764779958306,0.143595447223022,-0.0267588660292922,-0.26927438560057,-0.252691003817222,0.0524952189945563
12.57,-0.854496119009293,0.142706015250098,-0.0234227222982107,-0.293293497806507,-0.182177334917931,0.0831003631094683
12.575,-0.843436049520609,0.130585881685806,-0.027021855030766,-0.313272106649667,-0.127663606360434,0.119166943434889
12.58,-0.835986677630652,0.120046930177388,-0.0216167747182683,-0.332259531607656,-0.0711074646535781,0.129287093877792
12.585,-0.822171891124675,0.103513354222151,-0.0195436832590092,-0.374857262363973,-0.013685841250958,0.131610470599767
12.59,-0.820077207359732,0.0841119255632654,-0.0116983620021452,-0.417675406030162,0.0269276327990983,0.130656881727454
12.595,-0.817357691348613,0.0656083954317899,-0.00404647392121649,-0.477479038951904,0.0620620740505331,0.123572267094029
12.6,-0.810843489346141,0.0539375328968738,0.000910835989965546,-0.530753090225797,0.0836617706702434,0.116666965167779
12.605,-0.814404247615014,0.0436658977495565,0.00150092262746327,-0.597531754740001,0.0991228799613769,0.0989581535021174
12.61,-0.823196842585435,0.0324979858944526,-0.00280788215141996,-0.632231168582862,0.109709821770297,0.0824090760060956
12.615,-0.835011487901495,0.0239744172050921,-0.00408694278142447,-0.655939631589592,0.123039792394125,0.0681704668534667
12.62,-0.858839037629036,0.0213724376254702,1.38940546602893e-05,-0.665577402089134,0.119301446424729,0.0559393437904212
12.625,-0.89264204602665,0.0212293672846274,0.00170601503021322,-0.671639800071716,0.114729314805376,0.0496116875416573
12.63,-0.91332893262425,0.0245513116223516,0.00175016211260982,-0.669052891412139,0.112816467881203,0.049948726297623
12.635,-0.946865834394157,0.0233439633502118,0.00917224164364388,-0.658419616215946,0.130525028813535,0.0542236912274651
12.64,-0.978050759182107,0.0177581138202343,0.0170166322507211,-0.639890607364521,0.136962715999076,0.0646232737069719
12.645,-1.01284462258305,0.00995241285998994,0.02680870919675,-0.615754353643764,0.14607289416578,0.0752409684304523
12.65,-1.04621495193208,-0.00352784752051406,0.0379753616352561,-0.578128624389392,0.139037137998169,0.0953309575749352
12.655,-1.06783722430747,-0.0118257903714477,0.0399693820942546,-0.569017469882965,0.136883893415289,0.117803495315644
12.66,-1.08471057068283,-0.0353934613348527,0.0287535902497186,-0.559631155527576,0.121997588688483,0.141854450262462
12.665,-1.11517177156516,-0.0538200290858238,0.0100878205457119,-0.557498438061004,0.105951307881721,0.160353224858388
12.67,-1.12284230518757,-0.0633696006387721,-0.00433253913389146,-0.559862680619198,0.065934185640112,0.185500941403502
12.675,-1.11643050685681,-0.0714601955336121,-0.0147059073106335,-0.595632890134054,0.0265858099427682,0.211388435282888
12.68,-1.10215978943621,-0.0839329571398465,-0.0192805098532568,-0.666048241233867,0.0267522819872473,0.218470796942711
12.685,-1.09501972429159,-0.0847800771753086,-0.00879190205413435,-0.681758314330379,0.0332086878427474,0.213928952772419
12.69,-1.07280640905954,-0.0829855630382196,-0.00226638726271795,-0.660822102312047,0.0225886095656355,0.194178941152354
12.695,-1.05645393151693,-0.0739521996810668,0.000916045735390857,-0.63120861929292,-0.00490417311620818,0.183848441206306
12.7,-1.04070394189966,-0.0603095255697234,0.00391550929836818,-0.589787889666882,-0.0184283174521367,0.17998781530746
12.705,-1.02117857040913,-0.0532967070067669,0.00556363456473707,-0.553932114446532,-0.0165010040888182,0.17497798070652
12.71,-1.00687085508994,-0.0415151933659553,0.00840411350789252,-0.515858261067924,0.00620709615274293,0.185286584112329
12.715,-1.00173509534171,-0.0359573419825503,0.012723362306309,-0.469818396760238,0.0394934150685987,0.203525907493121
12.72,-0.996471610797913,-0.0235411755095218,0.0204155160831743,-0.443087369873195,0.0675966729063113,0.216686010712706
12.725,-0.987499144589236,-0.0174945392917083,0.0179190345315436,-0.429053271697695,0.0832248946935172,0.230367101806953
12.73,-0.979573986712132,-0.0162043344997977,0.0188314795555127,-0.429744273424149,0.0975095779052991,0.228675383345165
12.735,-0.975627711922684,-0.0173640319835318,0.019366403127186,-0.427652261574404,0.108097211235305,0.2268469671809
12.74,-0.971621288919959,-0.0178104744495511,0.0203315591797853,-0.422497422463949,0.122360867472646,0.217415752202559
12.745,-0.976874293936939,-0.0159654226400704,0.0171077813185883,-0.410821303076777,0.121874151006874,0.204703805745074
12.75,-0.976199859813969,-0.0174102178196068,0.0259504710569432,-0.382699139528862,0.124592754177218,0.193616376111594
12.755,-0.977294426231312,-0.0229172555864935,0.0345690702409119,-0.328264586488119,0.131520584482258,0.179251437105303
12.76,-0.987072028895498,-0.0219042617035732,0.0549130740972815,-0.269492751916049,0.139211567748168,0.154106537428516
12.765,-0.983602454992983,-0.0370578525436761,0.0685609432666207,-0.198801619892147,0.147995815238102,0.1253858493246
12.77,-0.979983814152658,-0.0369195030375839,0.0650888133762664,-0.148351823366749,0.161176847261257,0.107158668382873
12.775,-0.96837042074958,-0.0433416465030571,0.0618861219648093,-0.118464732873266,0.19064410994759,0.0770969948597683
12.78,-0.962520785525507,-0.0581078305550023,0.0515345579548028,-0.0579917620822611,0.233320510012322,0.0732447510474421
12.785,-0.951537015633473,-0.0564105549324882,0.0545180326294628,-0.0354872635441764,0.242702395122831,0.070627767810213
12.79,-0.95335899096883,-0.0549641599229482,0.0610742894322732,-0.0233877587596825,0.266819726813576,0.0569383730523146
12.795,-0.953584261692183,-0.0566161898514529,0.0632481971766142,0.0289532578071942,0.274326634508573,0.0513451577116063
12.8,-0.950676629167427,-0.0617639539658467,0.0686739472930663,0.073418026153666,0.262988346021862,0.0465371192040714
12.805,-0.950913672595682,-0.053343183853221,0.0727615747831208,0.0773482817896859,0.242971597876,0.0329519244072759
12.81,-0.953448770850609,-0.0486401988259065,0.0773261467025462,0.0797573098521463,0.226456192735166,0.0223613438240821
12.815,-0.958454648506315,-0.042210843231994,0.0811234541477399,0.094339396115562,0.206910212281922,0.0205562897026539
12.82,-0.961573727513632,-0.0264289881111193,0.0859576465242588,0.083572603617121,0.194846996389063,0.0111837017228804
12.825,-0.964932156737489,-0.0242057329964728,0.0872965822181213,0.0869280618913991,0.147859433439158,0.00297570735883858
12.83,-0.963796117561771,-0.0152280878712468,0.0931691303138976,0.0960709683886842,0.104393996720958,0.000717209560175197
12.835,-0.968388269809502,-0.0139741809691648,0.101684036371218,0.100610329877214,0.064149939851621,-0.00265590474009514
12.84,-0.976418074968965,-0.0114617010108775,0.0981807492072296,0.106921194701163,0.0255046434111026,0.000122471836798437
12.845,-0.980112735779486,-0.0140849841825443,0.100151693432687,0.12334540562533,-0.00976884085145997,0.00345256552100182
12.85,-0.979951793278496,-0.0110197234643246,0.0983203815096593,0.130381509730449,-0.0453126253073011,0.00648565779654971
12.855,-0.982866815606894,-0.00092563958976077,0.104735844489569,0.144500469228547,-0.0814778382961002,0.00713490820647907
12.86,-0.982605124176604,0.000960981749275014,0.106549398888535,0.162746387536829,-0.0978644603159361,0.0139587476219844
12.865,-0.977572345505292,0.00331387749803497,0.106795582741308,0.189048365450797,-0.102226311017645,0.0234834472676707
12.87,-0.976301055233355,0.0101829503475454,0.106572586578148,0.217340129934369,-0.0978312514588401,0.024926809733577
12.875,-0.975335485686619,0.0154573777898844,0.10562566835523,0.234035497852214,-0.0953257661607553,0.0264376802222585
12.88,-0.971391439802813,0.029144752934019,0.102283867956972,0.247487553637529,-0.0903082794252453,0.0300872562111801
12.885,-0.964039269446064,0.0406007509119102,0.0891640391523758,0.257801432522777,-0.0883906290336709,0.0209287912025108
12.89,-0.958174431914421,0.0408870554418728,0.0831550986217909,0.264784858622177,-0.0912065133452415,0.0168900053598223
12.895,-0.949276244575709,0.0417886558605742,0.0647937384099339,0.273364896751434,-0.0948784556004398,0.0101616136438722
12.9,-0.944392450841121,0.0431677052846642,0.0506619182426317,0.28681326296949,-0.0880210790507392,0.00703519804511687
12.905,-0.939757507363169,0.0439257059887951,0.0454405800006397,0.277708673175443,-0.0724951567731069,0.00664920118166825
12.91,-0.93702057990825,0.042209150710324,0.0439816327601589,0.267965011215304,-0.0344515784111865,0.00899465965979561
12.915,-0.927113090743999,0.0404169441756148,0.0445941054238358,0.258957848735959,-0.00253974237764277,0.0114123654226652
12.92,-0.922217069283759,0.0355581805169302,0.0595973825064707,0.239040576133361,0.0230641474528061,0.0100789913270594
12.925,-0.924856137799164,0.0328576842203377,0.0698785760821346,0.224046086017349,0.0503321413876007,0.00511015717314528
12.93,-0.929546177309308,0.033929252718813,0.0783290814808612,0.197708659859504,0.0620484588939081,0.0058959536254406
12.935,-0.936326019625899,0.0317039918321379,0.0895961237016297,0.164896527004185,0.0553747266858852,0.00495448931462001
12.94,-0.935405523064454,0.0372436782252001,0.082566325901225,0.149039125071693,0.0373477903265508,0.00910009129138293
12.945,-0.938462888955077,0.0395204824580883,0.0837984401877137,0.141389224995865,0.00800292349973326,0.00997405802187572
12.95,-0.94516224038911,0.0379881886289517,0.078645189852705,0.140887740329949,-0.0324361104482092,0.0165175330364747
12.955,-0.956201974047497,0.0307847214779911,0.0820301717078201,0.158345369408586,-0.0764806200858387,0.0268854965042954
12.96,-0.972360480038641,0.0345116589550334,0.0895450203995901,0.171242993872163,-0.110505147016016,0.0351626033589225
12.965,-0.984514798984234,0.0330765154908987,0.0996783743138675,0.183020635124639,-0.127328626315874,0.0422839268316075
12.97,-0.995136494157431,0.031151705548906,0.102332144223289,0.196994153213454,-0.143560933340657,0.0549513347299246
12.975,-1.00203405238294,0.0260239326699027,0.1018108684517,0.208733985894939,-0.143551634891637,0.0522250852272966
12.98,-1.00642291057678,0.0320264316216665,0.0910964841857376,0.202226618662544,-0.105631044411056,0.0445567463879609
12.985,-1.01493187410733,0.0341254959974894,0.0834589398559371,0.192790849644771,-0.0661425885504314,0.040334277646022
12.99,-1.01423953479685,0.0418986231860711,0.0743310520444756,0.183461903183127,-0.0353554779259603,0.0376388967083984
12.995,-1.01025202946705,0.0441172218997813,0.0690664336275002,0.168020461037921,0.00447640195372973,0.0382115066537058
13,-1.00420843016736,0.0420472060774569,0.0731664692052757,0.158168614423955,0.024548705827475,0.0349946161765798
13.005,-1.00430846363136,0.0441207891813513,0.0707565196838636,0.143704557937586,0.0410099710326797,0.0306033278804427
13.01,-1.00373440059379,0.0472974701802895,0.07422366173551,0.15113032440425,0.0322081315238871,0.023616401448578
13.015,-0.993864507311459,0.0505243915516892,0.07415447642998,0.165369916988484,0.0270350938506044,0.0175873939782411
13.02,-0.992986492421034,0.0463648654436157,0.0784702901597889,0.184777251887779,0.0248554795444813,0.00710744091477013
13.025,-0.993133789703629,0.0531664777214795,0.0743304058771685,0.197239991379573,0.024304134644247,-0.00716665107561892
13.03,-0.990382989124469,0.0518184542404912,0.0684996843840071,0.204269272301244,0.0169478787380107,-0.0190454770929671
13.035,-0.99544559613941,0.0539701927875896,0.0682082705876567,0.214008474648925,0.00601852371506964,-0.0300838364055822
13.04,-0.995604799592544,0.0527269085163196,0.0675064854983625,0.209215126689961,0.00286395847797394,-0.0429520536516315
13.045,-0.998548235236011,0.0444723546673784,0.0723195481886506,0.215303590773436,-0.0160552427786139,-0.0631058932571699
13.05,-1.00291962504293,0.0288999685318344,0.0827237731702935,0.221362573580211,-0.0317994739708606,-0.084312341478397
13.055,-1.01046645534056,0.0196610582398005,0.0992200436769155,0.233878080082289,-0.0486894587997119,-0.1048981571054
13.06,-1.01789592778043,0.00987384847802499,0.105908313970904,0.254545670305004,-0.0852390568717784,-0.128549200608627
13.065,-1.02333792901993,-0.00661153744282644,0.121479789139154,0.293681880324869,-0.127797838689215,-0.145063383571118
13.07,-1.0344129345196,-0.0253649298975415,0.129540105705971,0.333885432853235,-0.179246987029875,-0.162114508187706
13.075,-1.04351009785597,-0.0370267203431786,0.146520852409602,0.373644840662713,-0.230451946806397,-0.178454975545713
13.08,-1.05415926630971,-0.0521472532138417,0.157290609009347,0.401526416492809,-0.290567113315039,-0.193622239125031
13.085,-1.05949981152347,-0.0635793908008244,0.159675356161391,0.428207565853033,-0.361845569362154,-0.214024629860653
13.09,-1.06711078794076,-0.0702512205327454,0.162455190857799,0.452820552770398,-0.406832106346724,-0.230455021157763
13.095,-1.07248313812308,-0.0682715734588647,0.162497403178485,0.464834203233389,-0.467185301959484,-0.256318697432687
13.1,-1.07680980022499,-0.0734557259930911,0.171083689417599,0.45947121987521,-0.509627254115186,-0.276582681986997
13.105,-1.08041192397769,-0.0543018842354872,0.172734589337234,0.442340813686252,-0.547663028941252,-0.294429343721287
13.11,-1.09071895283885,-0.0598168427981276,0.177972974913968,0.415796258307046,-0.558648580111863,-0.312147603719059
13.115,-1.09828499572422,-0.0581780779997596,0.181172442459351,0.393266528925689,-0.576974987758575,-0.320296496152878
13.12,-1.15387086619363,-0.0557102535549957,0.176150973583611,0.371655853498144,-0.61722745761973,-0.33600542876695
13.125,-1.25384014664166,-0.0624850023468586,0.192248687869046,0.370962405636453,-0.689192683148075,-0.323026276358035
13.13,-1.35522323639929,-0.0767504584838033,0.19495543781613,0.403166677319327,-0.757569688211982,-0.317917802317373
13.135,-1.40835549100454,-0.085853174672727,0.176121850635552,0.484924576469553,-0.755260886018319,-0.313564482141829
13.14,-1.41552348987939,-0.0923463695448701,0.119585276425901,0.632903674245041,-0.727979995694589,-0.296065567184464
13.145,-1.40592762554769,-0.0837284534471899,0.0881694538701989,0.719762390309389,-0.707562622651315,-0.284567533545125
13.15,-1.37463299543951,-0.0566822645773103,0.0408763628946876,0.810252283325126,-0.697178689342165,-0.253965255917649
13.155,-1.35993968237095,-0.0302445565468618,0.0443390192499128,0.698776801207402,-0.676802992832706,-0.19189771445251
13.16,-1.34326292378075,0.0139783553238727,0.103023216122376,0.501017793880922,-0.639948183077394,-0.183442599291697
13.165,-1.31819052528942,0.0857260553088904,0.104172875852744,0.37013457002803,-0.610720451730345,-0.200269997206932
13.17,-1.29285995369611,0.128258141184566,0.0977433337460829,0.287537399151194,-0.559954189195408,-0.217026560789018
13.175,-1.26778955400466,0.149055435649828,0.0866419446312692,0.245769005386016,-0.479224531509112,-0.216441984307037
13.18,-1.24674232309515,0.142131568548656,0.0773183154999612,0.205744839103058,-0.392200921951296,-0.215230762958527
13.185,-1.22724277603341,0.115171547628991,0.0648111635889528,0.148021494310656,-0.269569781045587,-0.190702172462071
13.19,-1.2179759069437,0.0933411596389953,0.0580134478998782,0.120781210495151,-0.202198542765489,-0.174483750711855
13.195,-1.21024235862712,0.0500642919278355,0.0563827827491848,0.084630213597335,-0.151724072319507,-0.163618018251754
13.2,-1.20179905395272,0.0084018477220371,0.0579971840935893,0.0418298058211803,-0.102938867707632,-0.145257508822066
13.205,-1.18610312664695,-0.0272999802121874,0.05920333171116,0.0376154900988459,-0.109514334134825,-0.125515431222801
13.21,-1.16883789936143,-0.0563906803631381,0.0673173935108528,0.0296070611819844,-0.123601714559465,-0.108008220410149
13.215,-1.14618808367445,-0.0812630931062392,0.071141151291823,0.0527995182986747,-0.160808633236946,-0.0991748826405591
13.22,-1.11094417098098,-0.11889754653114,0.0752866278577671,0.105743295544644,-0.212811921346053,-0.0997938932784818
13.225,-1.08151007104702,-0.149695400185005,0.0795404524691433,0.148218003160588,-0.263405148182888,-0.093276071939005
13.23,-1.05479730491698,-0.172671828521665,0.0741532428091077,0.198846991744897,-0.298156053308443,-0.0854875874670548
13.235,-1.03020761209004,-0.200880275238877,0.0705677609369473,0.255335186300043,-0.318350180218585,-0.0832960647417502
13.24,-0.982992924026491,-0.234227074784261,0.0428954405942312,0.310648611922954,-0.319060206271835,-0.0872646420223256
13.245,-0.934325719477511,-0.267541839742169,0.021260926090454,0.357301166005156,-0.29772074426708,-0.104956219830469
13.25,-0.877275596273238,-0.292086506986917,-0.00316353654927332,0.38276085062039,-0.234507793186628,-0.12240806399848
13.255,-0.841427615480802,-0.295607569806364,-0.0317529484192834,0.419396142821917,-0.165554801794621,-0.139503993683592
13.26,-0.800885348165818,-0.303443481025325,-0.0475813723906416,0.44865408539772,-0.0725471501125988,-0.15094247826805
13.265,-0.768894690033969,-0.289695245084344,-0.0435305701369338,0.456533419674774,-0.0107739341699811,-0.159648401639522
13.27,-0.741744131814916,-0.264560124528585,-0.0419248016130247,0.436175839153073,0.0535044891746868,-0.164521888539983
13.275,-0.713309368115882,-0.234438970454179,-0.0288822091406795,0.418157551330422,0.146591994061483,-0.15299631607959
13.28,-0.695608977579709,-0.214167858034898,-0.0127485432360365,0.369740274813883,0.224716040226705,-0.143745262857078
13.285,-0.699541129035849,-0.187209204778916,0.0041289624176305,0.306163594049987,0.301189749593115,-0.137091543920146
13.29,-0.713193448151751,-0.156240283759543,0.00921592439388437,0.287035946272738,0.353424900039436,-0.141285535327793
13.295,-0.736841322168198,-0.12487240970717,0.0169789862482999,0.306962999637047,0.382861917957746,-0.135886870243694
13.3,-0.771775557335073,-0.103199314776826,0.0306611509447788,0.31484636048814,0.396228142902283,-0.153803059370188
13.305,-0.807041005165572,-0.0700123074110969,0.0418166638075478,0.316741358155223,0.392039270451381,-0.165100917582823
13.31,-0.840637528167093,-0.0520648165560491,0.0466018465502248,0.297577769846281,0.375843591406903,-0.174577543239905
13.315,-0.881191735841863,-0.0416129057483004,0.0485701791614318,0.253349002564473,0.334109213316961,-0.193167619124572
13.32,-0.942453804895858,-0.019132423095797,0.0324864534319694,0.201234843734906,0.296888982713569,-0.220882179429183
13.325,-0.984993841886941,-0.00364161376109175,0.0114793495963956,0.148630443018473,0.259751878353413,-0.252741017680683
13.33,-1.03355718882739,0.0186194087285591,-0.00830459412637605,0.0784511430376761,0.197989384447324,-0.286779232580796
13.335,-1.05965797832341,0.0340034467867743,-0.0268663014800674,0.0126996461014773,0.152024999861935,-0.31654091315149
13.34,-1.07468227576556,0.0408379028546979,-0.0424659144762538,-0.0398686315329493,0.128413229130357,-0.339725746389877
13.345,-1.08282197115898,0.0472270294335497,-0.060948602584156,-0.112092961375252,0.132204556333888,-0.370619121895535
13.35,-1.10298563613908,0.0535739465339542,-0.0655211453898736,-0.160187151132556,0.13814927984045,-0.387996440205887
13.355,-1.09873128366656,0.0343132903957966,-0.0738009970220601,-0.201013046571399,0.156664715183757,-0.375378953594117
13.36,-1.10101768297702,-0.0145324763409914,-0.0442086202631409,-0.271362423326048,0.152568559545904,-0.340266572852615
13.365,-1.09793572424887,-0.0516493588946641,-0.0395206524975418,-0.306184905590952,0.147023916244507,-0.324665901537321
13.37,-1.09484374867215,-0.0734501023352071,-0.0318384341427161,-0.326727732769104,0.156009074456377,-0.296682894102761
13.375,-1.08322719994529,-0.114471882177911,-0.0248960015927208,-0.294703237065954,0.149629301320811,-0.270490537758662
13.38,-1.06502677563481,-0.141260084571039,-0.021953659413551,-0.241352726844716,0.130678969630179,-0.240984970633103
13.385,-1.0432404767625,-0.16376243352604,-0.0271492444264785,-0.191788869153142,0.110891625237725,-0.22956113136398
13.39,-1.02740435420122,-0.175923133229362,-0.0297888959693557,-0.153160855220938,0.0766666270359642,-0.217711396496306
13.395,-0.985953963163792,-0.171742513154091,-0.0408564759952779,-0.114380276651218,0.026908618783127,-0.238520803079931
13.4,-0.965452733846014,-0.180504939734473,-0.0373907515323677,-0.0911325557231605,-0.0208686461549668,-0.24667674772401
13.405,-0.938639092422326,-0.188796533838871,-0.0172922260847353,-0.0778734354147556,-0.0428240533302469,-0.247571415081945
13.41,-0.909080641766799,-0.192039852515207,0.00728562150988567,-0.094545214915117,-0.0324266757339339,-0.256698081410525
13.415,-0.885127836640318,-0.188794020547632,0.0218798839023788,-0.145951070333628,0.0026365403296077,-0.26890949524525
13.42,-0.865867108310172,-0.181971812072011,0.0420602980947761,-0.180296832198285,0.0469341947026314,-0.28826603905324
13.425,-0.856187297665495,-0.16585402716488,0.0438840328890026,-0.209932282894511,0.0869470327588581,-0.294049234168531
13.43,-0.844587379185389,-0.159291948662631,0.0536835930850353,-0.244008078701804,0.133797739829231,-0.295215526092557
13.435,-0.830148152857597,-0.157996353377796,0.0482630208222254,-0.26921066572783,0.200463858320476,-0.301817446169238
13.44,-0.833570669144616,-0.162667037419032,0.0418678161407209,-0.284570393246646,0.253023733761016,-0.304700341471327
13.445,-0.83456926358399,-0.173475480392858,0.0480015856335372,-0.304195873575196,0.316995693426506,-0.307429716216631
13.45,-0.850476707693003,-0.18334373433206,0.0472791435880213,-0.33335071639261,0.357812484489286,-0.310205151609088
13.455,-0.857100033129107,-0.19470517987242,0.0475400205810031,-0.335539856349651,0.371855888260382,-0.296990555484434
13.46,-0.869119384672079,-0.196376456304423,0.0347718543991649,-0.331234214813309,0.371891251234788,-0.291224596293973
13.465,-0.878963070264766,-0.198324615179794,0.0212177219329352,-0.385468073566989,0.36324024442456,-0.310416657120478
13.47,-0.877683518813714,-0.20914463594153,0.0190688580618916,-0.4650123502288,0.379236895013454,-0.328733991321646
13.475,-0.879627194889799,-0.221214204129944,0.0221414452928361,-0.473879043966831,0.435620841854009,-0.32289365401894
13.48,-0.878940831856893,-0.239252749627056,0.0251329057744217,-0.366061730082173,0.52122702927588,-0.284519204613239
13.485,-0.890971070879291,-0.252881665664357,0.0291790631829452,-0.248335111278672,0.617935501036838,-0.242578189306722
13.49,-0.900061326451277,-0.259839158607888,0.0211576313214432,-0.200511179509004,0.708453012299146,-0.220242005023924
13.495,-0.90622314874565,-0.266672865377341,0.00830905948951987,-0.207391446931838,0.722443693841024,-0.212789577194215
13.5,-0.913668466822795,-0.27058148105085,0.00173389348523867,-0.20006448477826,0.664769292343701,-0.197881957590993
13.505,-0.921646812062605,-0.276159197517798,-0.00378292269513184,-0.190878823547018,0.560186029071517,-0.19260521963389
13.51,-0.932819295564975,-0.274604914125013,-0.00537728655845671,-0.190615670347989,0.480767530906999,-0.200425746434536
13.515,-0.941467107600066,-0.275769395514723,0.00174701652913465,-0.197661220335094,0.399778562176119,-0.205479419295457
13.52,-0.943160141445796,-0.270107984447147,0.0010986483815576,-0.217381367767564,0.332675756046038,-0.217296013833797
13.525,-0.946005864658601,-0.273718638665232,0.0140388460395444,-0.225721299648285,0.295038335063575,-0.223179661814805
13.53,-0.946394034937725,-0.285386580410039,0.0194517623025854,-0.222058963266208,0.260045758821561,-0.213405082582987
13.535,-0.943975065001121,-0.288627077080866,0.0163630959217818,-0.216042331469115,0.250915225442603,-0.205551780166609
13.54,-0.93818219057953,-0.288342000590246,0.0159271427834944,-0.22564180668057,0.263005391846042,-0.201221011037657
13.545,-0.939392407810799,-0.284927267423991,0.0114145181423072,-0.240295131974703,0.286605162810262,-0.189122912507074
13.55,-0.940753827051512,-0.283862231822208,0.00942369062618865,-0.23775858425326,0.30961707464091,-0.172363651481947
13.555,-0.940163619038857,-0.279937949409468,0.00650707538936195,-0.226974565541109,0.32169465347592,-0.155417356577722
13.56,-0.943217635512061,-0.280550683570701,-0.00647592181209945,-0.221660897641266,0.335693984951647,-0.14315077662468
13.565,-0.944710357154471,-0.27293826158725,2.90911209908304e-05,-0.244360601346314,0.344368847775022,-0.141442031372906
13.57,-0.948956698161717,-0.264272234024624,0.00642262581898246,-0.258707046508789,0.350898527345158,-0.145769759838603
13.575,-0.954992008938049,-0.256580908154082,0.0183868750250993,-0.234557945353339,0.35349029302597,-0.140792822486922
13.58,-0.95634516877841,-0.242885639694194,0.0407353415432981,-0.214115106708586,0.365095487803628,-0.151396872737432
13.585,-0.957368667211555,-0.242563396083656,0.0608977727963463,-0.22015308740568,0.395406825669354,-0.163217987138751
13.59,-0.955672095074653,-0.244450956210612,0.0701245353640655,-0.205378336672462,0.399672332818134,-0.169716900721024
13.595,-0.962625732053468,-0.242333642591223,0.0688805119828881,-0.1681942662801,0.382750251342616,-0.167565995965584
13.6,-0.96612897704748,-0.248669107086302,0.0532922046788508,-0.133110659809661,0.363087423426362,-0.15974288797385
13.605,-0.966106750341217,-0.242349385007106,0.0426920466869194,-0.0931404489734451,0.341067270238798,-0.148817673228527
13.61,-0.964482084519023,-0.239219012033427,0.0324075533327792,-0.0523740826001643,0.303465614613213,-0.139756340377159
13.615,-0.96505239039111,-0.238182796104554,0.0264607588590286,-0.00742353517284065,0.250282947862442,-0.131184969802295
13.62,-0.966979967059415,-0.227482712264194,0.0276959969905167,0.0291954917231552,0.201908450242661,-0.123939619946619
13.625,-0.976357480722175,-0.230869821822597,0.0313373418664962,0.0370807855333265,0.163431611181886,-0.114243390649742
13.63,-0.976696387615186,-0.230163899157814,0.0362100011080542,0.0328745758806261,0.132386781065163,-0.106499940156937
13.635,-0.980951980525692,-0.219852950106538,0.0331191432739731,0.011520161324675,0.0924446573424362,-0.110123961158338
13.64,-0.974097512730234,-0.214436731544722,0.0255387933232408,-0.00467875707925269,0.0707313331580938,-0.095041349380699
13.645,-0.969649631508954,-0.210244051516091,0.0299415555869077,-0.0289008476640435,0.0437815968862241,-0.0806437790641118
13.65,-0.968597303283685,-0.208786934823466,0.0402754450750807,-0.0443051892491201,0.0160386556635329,-0.0719843047294776
13.655,-0.964737949957912,-0.212914160375485,0.0389892419254827,-0.0495233437840173,-0.00842158824348364,-0.0559558074162009
13.66,-0.957478183386962,-0.202520849591278,0.0427942246366177,-0.058349147439003,-0.0251416313430575,-0.0518641311769372
13.665,-0.956149725142912,-0.205243998719227,0.0463389754986572,-0.0549350136844686,-0.0371173599634503,-0.0462351875897682
13.67,-0.948702837808958,-0.204516870886867,0.0531405385657264,-0.0469650364250335,-0.0463926818029895,-0.0397286709620636
13.675,-0.946473462205477,-0.210307464309496,0.0494632423942644,-0.0287086766200327,-0.0473670925865299,-0.0326844397533569
13.68,-0.939390721766849,-0.214095576787405,0.0504700395134295,-0.0148160584253438,-0.0554515153134599,-0.0291532101777216
13.685,-0.945837775864147,-0.224532745254834,0.0463842607557675,-0.00784235125654642,-0.0440556022356268,-0.03482215209559
13.69,-0.95374508983731,-0.235220112722559,0.0467920101965873,0.0114769816487,-0.0345267445264463,-0.0285695337589988
13.695,-0.953296481255207,-0.250923721936943,0.048760743140116,0.0538737449436423,-0.0302567670286377,-0.0235596825483092
13.7,-0.949671296723012,-0.265192232213651,0.0520686563131067,0.0861461149690636,-0.0294191047959932,-0.00998607277870178
13.705,-0.947027592870824,-0.272288532773162,0.0541265886468886,0.106076237728568,-0.0377403936964115,-0.00495231256975414
13.71,-0.94358562828108,-0.277012374408019,0.0584936602105205,0.121370342473585,-0.0424236305753696,0.00223087146878242
13.715,-0.9424522767772,-0.282630755009409,0.0596440842486444,0.132173591305901,-0.0411581142829168,0.0130412982557642
13.72,-0.934362396402177,-0.278821090693551,0.0652055801906721,0.142851638575831,-0.028140026190947,0.0179021779993079
13.725,-0.936913164854473,-0.272640994104772,0.0670257297304938,0.149793251183641,-0.0016937021987057,0.0180502944907849
13.73,-0.939773627291925,-0.267012493877234,0.066615636310698,0.171872090358232,0.0139689349176273,0.0166391543766527
13.735,-0.951415188798115,-0.260531514528695,0.0769009233516294,0.216544942463912,0.013851885015055,0.0095640910317874
13.74,-0.966781490085188,-0.25803035190279,0.0747555122825992,0.249594748783102,-0.00139368736136711,0.0162620753138141
13.745,-0.974379800423787,-0.258646247833916,0.0782110917480362,0.29314398124666,-0.0131598359708441,0.0163631363820741
13.75,-0.97950950791998,-0.255834318229183,0.0791525112776325,0.34252399879851,-0.0384317857824033,0.0207558932570372
13.755,-0.97526602524046,-0.254338432130262,0.0758932141876433,0.387054353916559,-0.0604155273127066,0.0290193562834454
13.76,-0.973676232981298,-0.248466090116241,0.080152272050617,0.400243359715163,-0.0855575688284596,0.0313995997733542
13.765,-0.979750092582332,-0.244543287762479,0.0941052857014825,0.382787821947367,-0.106983322677681,0.0406576234330109
13.77,-0.990588611848131,-0.249742520958905,0.0998239676100123,0.360767915259047,-0.128249132965993,0.0353977759644546
13.775,-0.996075174830539,-0.249343572538834,0.113048886524883,0.329723418338391,-0.133331990906106,0.0337010026242626
13.78,-1.00439006744063,-0.248715405367413,0.126083170535632,0.281301082571844,-0.111768745618181,0.0434770840849228
13.785,-1.00982060003688,-0.239428520839444,0.13531414521587,0.256502352016257,-0.102920385087968,0.0424475615847612
13.79,-1.00494669976385,-0.224942487213241,0.121175246413178,0.206059127520974,-0.0721676886156567,0.0542461416417724
13.795,-1.00471685734061,-0.216362943595913,0.114071149540094,0.190189237126771,-0.0447129957602508,0.0688205374859683
13.8,-1.0109996763308,-0.208811665543673,0.10615019351822,0.174546837490516,-0.0263353961041466,0.0835645354947816
13.805,-1.00835554134478,-0.183800546559471,0.103479218178358,0.169091101565156,-0.014854963356835,0.0883733875590037
13.81,-1.00204197808954,-0.168821624740635,0.0893720415570178,0.169440388046221,-0.0234589657559836,0.11229635901746
13.815,-0.99714366296954,-0.156602663050755,0.0885053243624888,0.16805980736329,-0.0369047112486316,0.12428381524679
13.82,-0.997013307324256,-0.149167488069598,0.0861477175101006,0.150107446420504,-0.0488236666587041,0.134212232513821
13.825,-0.985675519374073,-0.133807611683606,0.098840862008844,0.111676355683062,-0.056780475865246,0.145837856570146
13.83,-0.982787340109811,-0.134003091443298,0.114162959463036,0.0686502842279312,-0.0678954983042522,0.153996460936405
13.835,-0.9726680480364,-0.134122357172223,0.128234978846295,0.0375917118537318,-0.0776678744952784,0.161724174632357
13.84,-0.965372677821143,-0.127430931509267,0.146011857871382,0.00712977770211884,-0.0887864098613256,0.16267232793355
13.845,-0.954904599649117,-0.12137694009007,0.145415269621025,0.0188831509871318,-0.0933690750172497,0.168252378831759
13.85,-0.953875290076164,-0.12306240490385,0.15351848219092,0.00187050528618867,-0.0793858043306506,0.178570911541116
13.855,-0.952945852051042,-0.129367332953501,0.14578436136756,-0.0226393941959338,-0.0716820805883388,0.186919343237972
13.86,-0.947005499309879,-0.141178491800889,0.137584670586743,-0.0641788553963512,-0.0539753049006503,0.198500204588797
13.865,-0.950634769648264,-0.149252638497741,0.133086714484351,-0.0999376986301612,-0.0496689081192017,0.214955900298211
13.87,-0.957137307728142,-0.153774802689062,0.133660253062004,-0.128174800772823,-0.0528176745272463,0.231920743838008
13.875,-0.967795948854855,-0.161920824326417,0.132408856035959,-0.150492889101896,-0.0560265648455268,0.248101464493782
13.88,-0.968158911884392,-0.167379932869468,0.139773327546755,-0.172913712536989,-0.0600318340636345,0.263335856408534
13.885,-0.979054967176447,-0.170382628093812,0.151818511257438,-0.208587193090075,-0.0655509307980537,0.279900244923705
13.89,-0.973600580018177,-0.182094675569731,0.162711049821435,-0.259137255520093,-0.0641435151325553,0.287423259602588
13.895,-0.975665954771077,-0.178255297044118,0.161098374763072,-0.302940079898936,-0.0593371939063899,0.297743790188408
13.9,-0.97922739304146,-0.178990050680671,0.15644173191469,-0.348451819995224,-0.0552325934420476,0.3047598270115
13.905,-0.979757650470232,-0.172248472154077,0.148771611251696,-0.380107781009015,-0.0589136167027324,0.308788046507762
13.91,-0.976287738988089,-0.181949416383733,0.149892984026373,-0.407068430382141,-0.0499430460617469,0.308739127293462
13.915,-0.979566148434416,-0.185032384079112,0.147147720054676,-0.417342464618496,-0.0487245164921708,0.308034257108552
13.92,-0.989806085633389,-0.184111947281336,0.15546908862959,-0.414103843715759,-0.0344707935383609,0.303250942655322
13.925,-1.00567252175459,-0.18649737853997,0.156960818199388,-0.393876845939919,-0.0226567693542198,0.296659260988235
13.93,-1.02147077934777,-0.184521563434945,0.173662120313547,-0.387177999583286,-0.0163839976108125,0.300081171730913
13.935,-1.04007361558617,-0.196984082389224,0.185397069575316,-0.425269139802226,-0.0144060017691355,0.311818298825042
13.94,-1.05674475423867,-0.212817266077173,0.180530432795716,-0.471262846013658,-0.016423429530802,0.323642401329612
13.945,-1.06060777821248,-0.216824103604092,0.15186893422846,-0.535039429523571,-0.00685155597375773,0.333484204257462
13.95,-1.0709341392033,-0.227785797085958,0.135859499853836,-0.573166127812961,-0.000793727693218913,0.333963355815378
13.955,-1.06850038312126,-0.230069443449278,0.129507529663171,-0.606191542579501,0.00751198431538982,0.32720160484314
13.96,-1.07860430974445,-0.221929850137219,0.125546269344004,-0.635428263105182,0.00431973174505879,0.317325468515667
13.965,-1.08496965734873,-0.230700065293684,0.124803567891532,-0.654076962725278,0.00349537181200352,0.30191509707244
13.97,-1.08448687591949,-0.242178998907498,0.132778327335663,-0.650639512660473,-0.0131166511669272,0.284713239918425
13.975,-1.08117466855561,-0.239168405354731,0.143162222461055,-0.667992919358001,-0.0405517211620436,0.277719964662635
13.98,-1.07624702824611,-0.237518326284609,0.150459928533056,-0.674586166838509,-0.0614543572178008,0.271219422619139
13.985,-1.07557998681337,-0.223372210347768,0.162109982290422,-0.679793175749101,-0.0965795391586268,0.266769262905528
13.99,-1.10612085716217,-0.218547110825872,0.192252821885698,-0.672759405508174,-0.138426669774336,0.254935044370884
13.995,-1.12922989274118,-0.211433008718327,0.206782205323164,-0.677736096239501,-0.16911621540546,0.254105582426503
14,-1.26982766782896,-0.174507027187464,0.194931352477683,-0.766338631237135,-0.2576220374149,0.251742694885593
14.005,-1.35940236920822,-0.169414441392922,0.153863671808293,-0.891513660093053,-0.252865205481782,0.2438166027184
14.01,-1.40995745135423,-0.18290250508165,0.0862402823475385,-1.00154910899889,-0.227539582569523,0.242070009136697
14.015,-1.42555993475742,-0.198755705641693,-0.0131876072257817,-1.09647538957161,-0.178033677633776,0.23227710338494
14.02,-1.39818483609416,-0.210316846394842,-0.092361326528478,-1.13758537479782,-0.159185222499531,0.221917612064006
14.025,-1.33023495577427,-0.224408865371177,-0.131950326609546,-1.08661890882839,-0.202849537166122,0.207091195000946
14.03,-1.23879615493331,-0.25165626240501,-0.133611864496305,-0.928735663444119,-0.316171596212497,0.179864268427186
14.035,-1.18665879795163,-0.288801982742322,-0.0869737355125688,-0.72485669951044,-0.482520595579085,0.140305670501688
14.04,-1.16483347390442,-0.32257292453539,-0.0436108606230162,-0.578238208131331,-0.612347247750409,0.122438483175744
14.045,-1.14383511375437,-0.345163832620471,-0.0176160666535597,-0.490377383549579,-0.674084107796528,0.0940017360213478
14.05,-1.12806523725621,-0.345002406589427,-0.0109002735504677,-0.403217019702266,-0.650344387020258,0.0545646332454323
14.055,-1.12141634582602,-0.320597800578497,-0.0168995314714792,-0.286767998238324,-0.550758963830538,0.0146830329047844
14.06,-1.11725194107068,-0.288730421069989,-0.0211903317806801,-0.186941600528606,-0.420866744468474,-0.00943344983241443
14.065,-1.10084959810966,-0.261253699195626,-0.0224661977673492,-0.114493389308664,-0.289425015524852,-0.0322028871935491
14.07,-1.09211894622702,-0.236167392738606,-0.0209528735709308,-0.121557964468966,-0.201836623287805,-0.0536477760187483
14.075,-1.08152225244325,-0.216692270491091,-0.0252940486216539,-0.180353709177706,-0.149404901993801,-0.0612972415983677
14.08,-1.06681030731785,-0.198725206484779,-0.0358040953095254,-0.253253024556164,-0.136483596743922,-0.0561214952797695
14.085,-1.04746218328286,-0.172290204060123,-0.0466809857520837,-0.312218426464374,-0.167484396034693,-0.0400921610709308
14.09,-1.0234250630041,-0.124853695310938,-0.0469827690604107,-0.358293342230159,-0.23214005725422,-0.0120652747560808
14.095,-1.00086324207854,-0.0997770793652598,-0.0467390001972316,-0.436650686294558,-0.286783995886019,0.0332995076885943
14.1,-0.977056724699394,-0.0706796966694646,-0.0388381115166044,-0.473025348796442,-0.314794513092525,0.0696738736446502
14.105,-0.961357296607809,-0.0503861405251067,-0.0317521535761293,-0.479297444030593,-0.331131064751703,0.0882645007238766
14.11,-0.954364404702276,-0.0363076554063054,-0.0265915760811283,-0.477495684187235,-0.335569496871872,0.0942220620274472
14.115,-0.952987759079986,-0.0227612091176646,-0.0240506599423869,-0.48291000035252,-0.326846346333182,0.0931659373811295
14.12,-0.948236693452706,-0.0101125740626097,-0.0324202187030895,-0.478974674724689,-0.325862526926071,0.0803762010897565
14.125,-0.931017508158274,-0.00295559064006909,-0.044846756462876,-0.470751628645613,-0.29607696706677,0.0818177623577476
14.13,-0.913401941546705,-0.00010210359796973,-0.0553016723387537,-0.469532915079394,-0.242079708986227,0.0777530658171471
14.135,-0.896969598175864,0.000102644742794664,-0.0604259351639952,-0.479457005780994,-0.160145191712744,0.0670653794880509
14.14,-0.881438368640197,0.00116401075373712,-0.0588849787424117,-0.490123185286103,-0.072389670587947,0.0463234489966931
14.145,-0.86570431624273,0.00749414477778936,-0.0536264567082618,-0.471241909787654,-0.0386736541986465,0.00463979724766404
14.15,-0.845883031182854,0.0225262631123975,-0.0433635484717014,-0.441385640198322,-0.0386736541986465,-0.0210983562322082
14.155,-0.820489663166776,0.0378106034538756,-0.0360064976106183,-0.405794717054848,-0.0637220187910594,-0.0601008610706287
14.16,-0.809391299037046,0.0511417461976759,-0.0291620950707514,-0.379079079479528,-0.0746848614525345,-0.090029510001613
14.165,-0.809241286349082,0.0640512067596602,-0.0234779024142607,-0.356643258099956,-0.0589903736897485,-0.0993805932911061
14.17,-0.811549141779206,0.078066312554727,-0.0193955892176354,-0.327285094090761,-0.022587346543498,-0.0883628815005693
14.175,-0.815674601873761,0.0919464641561497,-0.0150786928438132,-0.281359217522466,0.0198436304779568,-0.0654896000977356
14.18,-0.818370049283493,0.0893251925705929,-0.00614359439037107,-0.256221069955752,0.069114385113936,-0.0343183045963682
14.185,-0.830122814337025,0.0916127916356701,-0.000359612322576433,-0.244034171039352,0.093294426954464,-0.0095468038643557
14.19,-0.848145205118184,0.0841459493462365,0.00615652957500111,-0.240381628274918,0.107827605839454,0.030506843979441
14.195,-0.87470499309047,0.0665004975974655,0.0128330607351928,-0.250817947042384,0.11603291646047,0.076395527056803
14.2,-0.912882217406163,0.0459488254702637,0.0176294012186198,-0.2658344617715,0.118216851677063,0.117397553280766
14.205,-0.962715497969751,0.0334856138206793,0.0197601912560207,-0.221218374087954,0.12125885681222,0.177223672824054
14.21,-0.998220708232409,0.00612532447112307,0.0305082069646361,-0.214815827868623,0.111774320557881,0.225427794996275
14.215,-1.03685485496004,-0.0432383210084076,0.0354432029841169,-0.166199447916449,0.12461644369314,0.286232531745294
14.22,-1.05994527918849,-0.102480497854432,0.036336940111433,-0.124693441062948,0.131124119660577,0.319622931952121
14.225,-1.06754937736747,-0.155819336624047,0.0324507104490246,-0.0710469681168137,0.122470388625098,0.331292343029025
14.23,-1.08989814222456,-0.20532517513339,0.0289052647356761,-0.0223147000441617,0.106046701158642,0.314480243857967
14.235,-1.10210504591178,-0.23026038712078,0.0312736713781556,0.0216198482573535,0.0878116953435912,0.297713284440485
14.24,-1.09810680405082,-0.255389842765953,0.0317026360130069,0.0716963478627982,0.0811206427032031,0.280538392966543
14.245,-1.10449942436902,-0.266330664346828,0.0257254614831748,0.0906975865364075,0.0817269548225195,0.265503752547872
14.25,-1.1073642426698,-0.264662317781153,0.0174215810169588,0.0863566204282268,0.0829685627422632,0.24529233084772
14.255,-1.09737292105041,-0.256702220078757,0.00709136148540733,0.0716713592075464,0.105522438340923,0.24168299138546
14.26,-1.08937348833743,-0.227195404434951,0.00564093972250241,0.051967801756963,0.126329343712535,0.250309119904622
14.265,-1.07835165344107,-0.201689920177744,0.0207043922060927,-0.00605694408012126,0.118512711267905,0.254112583360728
14.27,-1.07663661526639,-0.179276085243133,0.0282006552983651,-0.0884356375775023,0.0827447301319827,0.260611887946389
14.275,-1.06894010442612,-0.145382511742962,0.0298695258070602,-0.117702352955647,0.035325401317454,0.260008424520493
14.28,-1.0605190584553,-0.103978990117307,0.0317357031769175,-0.134291954583975,-0.00584277913503178,0.260180583146362
14.285,-1.04236203991143,-0.0808836523984843,0.0422403944113744,-0.0882276151746706,0.00327744817866675,0.27967315116195
14.29,-1.00480064728401,-0.075134245277136,0.0663507135946472,-0.0460661057621035,0.0263292807900222,0.260052363907906
14.295,-0.986916281694914,-0.0507606080015967,0.0799751343986821,0.0110288141375959,-0.0177052323448013,0.228421386695257
14.3,-0.979424038805578,-0.0108377959900912,0.100826429236072,0.0325390758012544,-0.0765988599969704,0.230250273926546
14.305,-0.981949756172817,0.0127542580525439,0.106603198289585,0.00372884503610469,-0.090414401081387,0.244784393958751
14.31,-0.980192174174955,0.0357644505448767,0.107645185004247,-0.00465597101737143,-0.0715295724496415,0.265304775974583
14.315,-0.967230749639952,0.0634376062164085,0.108857937854197,0.00408312322626562,-0.0040844002787233,0.28726323066219
14.32,-0.955307157125933,0.0863861280687913,0.10538412244114,-0.00303540844125537,0.0446141847820815,0.31275389626549
14.325,-0.943267670794644,0.0955891380561073,0.103915189901496,0.00041338557949618,0.0661496844380935,0.336857223257875
14.33,-0.92465408428817,0.0940079518142665,0.0881274538428562,-0.011533336207001,0.0820012923876531,0.349310722977009
14.335,-0.903048041994902,0.0922804567643185,0.0815236906547638,-0.0292473093825774,0.0838312911371043,0.344418380985454
14.34,-0.889014878389352,0.089051153029407,0.0736810670568228,-0.0423031565700322,0.0984006590324604,0.336730629535335
14.345,-0.887117127744897,0.079264233100617,0.0719687067497412,-0.0176341097966312,0.103935571191751,0.330843323997975
14.35,-0.885889955524705,0.0758848050083876,0.0711178805473184,0.00237691391743996,0.107006301636483,0.323149420891279
14.355,-0.891262317178214,0.0683618334100845,0.0678880086328396,0.0323528585514992,0.0960216116010451,0.315903107758682
14.36,-0.903622514771072,0.0635216078942699,0.0619816810216948,0.0806029365933302,0.0771411452605374,0.304015399305943
14.365,-0.921301916911294,0.0481290034336463,0.0624350505119276,0.105539339383008,0.0248223080997462,0.269353303351208
14.37,-0.935071438034752,0.039268030275558,0.0766689781441114,0.0844090095424983,-0.0317037007862658,0.230187346656445
14.375,-0.942300202504529,0.0353286133186918,0.085967161024288,0.0712801595054679,-0.0630515256250773,0.19868348696124
14.38,-0.943838269962117,0.0256415906658491,0.0945546052192121,0.0728489097668023,-0.0812882299298623,0.170471433975481
14.385,-0.952554361904815,0.0200569897877414,0.109804207146879,0.0616885691579335,-0.0936921064428315,0.144612931756872
14.39,-0.960826232686932,0.0109660802587866,0.108867833915337,0.0599242823587578,-0.109558024512917,0.120213767729338
14.395,-0.969729943155798,0.0071283987399999,0.111477036104032,0.0540642629031517,-0.142079806591756,0.0935645835783397
14.4,-0.974851395298813,0.00132737590432556,0.124121115959331,0.0637665470438794,-0.187979319233937,0.0539721332260838
14.405,-0.976483599329848,0.00252799163721823,0.144462336832591,0.0864984795767431,-0.220356916359821,0.0279584494113457
14.41,-0.984990526872857,0.0105291391239058,0.162311558721392,0.112587179080772,-0.244922253947293,-0.00193617241265975
14.415,-0.973842665267851,0.0115104233259883,0.167098502323476,0.137160448709487,-0.249464493138222,-0.00955930961405156
14.42,-0.966215717061052,0.0171474834820748,0.171316842475469,0.16555713396756,-0.252836826392079,-0.015697464825541
14.425,-0.956104261373059,0.0184042961805637,0.166193774931628,0.173507299750953,-0.272469361284702,-0.00725028351228704
14.43,-0.948673536617368,0.0134508957020797,0.157050333555157,0.169816915603762,-0.29506461794735,-0.0133473587771222
14.435,-0.935549084689393,0.0126538766279234,0.144897594912845,0.138471966039405,-0.319674326925719,-0.0172520909987646
14.44,-0.933613963672911,0.00724170549863518,0.13551861710133,0.113349027699407,-0.33898215206086,-0.0250790074235376
14.445,-0.92718551900554,0.00769669763180211,0.124376148793381,0.119934199851596,-0.358151256481193,-0.0421043239149958
14.45,-0.927273767720387,0.00040413741153771,0.122674017031184,0.119733189599466,-0.365151133828561,-0.0650233707026583
14.455,-0.928471588301512,0.00011517873785804,0.114008377297524,0.117071138751678,-0.364287154728444,-0.0732247229534651
14.46,-0.927407533877412,-0.00642886121987127,0.104092469576309,0.113921841490653,-0.34539135590351,-0.0662081500061099
14.465,-0.92880651387955,-0.0116014239691735,0.0961077563052559,0.110444923909435,-0.325651431391861,-0.0480385335890571
14.47,-0.92234766952584,-0.00953541461415279,0.0951767778791275,0.061766065271959,-0.25658348588504,-0.00669536527019972
14.475,-0.909180059372357,-0.0156488875170283,0.0787102164358877,0.0488421344617412,-0.18669800402688,0.016648190779267
14.48,-0.906793716748556,-0.0230414654314526,0.0748111545542886,0.06492919651605,-0.120095140206335,0.0483168429591549
14.485,-0.892059024610121,-0.0338903164245812,0.0692180244796806,0.080906773587211,-0.0619376091432777,0.0772359627328733
14.49,-0.885446309872964,-0.0453765333874535,0.071400333445315,0.0805473272141926,-0.0157128933349032,0.0930129643145092
14.495,-0.910465761027612,-0.0466367065326733,0.0621768872008088,0.0651849274863146,0.0278893054812316,0.10837536838199
14.5,-0.906775972975838,-0.0438676992464835,0.0614589518691865,0.0546319595769609,0.0626960484772272,0.118158365816725
14.505,-0.885552356374981,-0.046743075603129,0.0653155841023681,0.0382994167782531,0.10256484556418,0.123982967771699
14.51,-0.881305936412839,-0.0461118991762435,0.0780667935649733,0.0505305185397756,0.133194982195179,0.128034542413425
14.515,-0.878196470057886,-0.0393394992575088,0.0846881695796724,0.0557415352423486,0.161395438436996,0.137996661220588
14.52,-0.880869556300005,-0.0352368926441852,0.0947741915239156,0.0609851761650846,0.178695042582807,0.145929383127415
14.525,-0.890733323634436,-0.0268878602122639,0.102261668572651,0.0675495376594372,0.207970371580789,0.156228536882004
14.53,-0.894598396324186,-0.0291449589250843,0.106413190800179,0.0858033470844349,0.216375573912546,0.163194718023008
14.535,-0.906588084657009,-0.0233755481346761,0.112889926299557,0.0777168892233943,0.24399421876591,0.17280865527922
14.54,-0.915873574797509,-0.0184363393438991,0.121899456259159,0.0840153772895764,0.265100134733389,0.17578284893781
14.545,-0.926014735050354,-0.00280572362370458,0.130766543576477,0.0980443257907716,0.291578570087638,0.179995717308088
14.55,-0.942724407891629,0.00372481039916234,0.130125537283359,0.107519343207808,0.306877915484064,0.183605513272605
14.555,-0.963716912198739,0.021277544727218,0.131887191271002,0.133327061350264,0.319282859563828,0.188956843915812
14.56,-0.990690404802006,0.0430961327570515,0.136610643283042,0.155724222842859,0.323148384422068,0.192815214395523
14.565,-1.01731725060449,0.0570972999213785,0.134079007805528,0.180014920640342,0.337335415417499,0.192815214395523
14.57,-1.03483225953924,0.0829448180099299,0.128907619873505,0.194890479181746,0.349563895222246,0.195840486265196
14.575,-1.05107812225941,0.100753255049117,0.124290850964598,0.17643202338951,0.373707985971906,0.200589867138677
14.58,-1.06766646459171,0.112780506032325,0.102329776097335,0.141799392391256,0.39376351921388,0.189993748907249
14.585,-1.06083394618766,0.129921093701667,0.0629689500576751,0.0878135577510593,0.403991768997075,0.185215153159122
14.59,-1.0602614781571,0.138551491673373,0.0436695708134708,0.0534495287500568,0.39221361817451,0.186435376487453
14.595,-1.05854163616415,0.150783860317623,0.0169114319867152,0.0480506104477841,0.364031530548666,0.164266906281869
14.6,-1.05367037823968,0.160790111875351,0.0118257973334022,0.0481171935479373,0.318986466146148,0.134562441767111
14.605,-1.05532820528255,0.171137011333149,0.0177613928176451,0.0567013693733566,0.266677658815035,0.0975496881529845
14.61,-1.07158851071499,0.160221265635064,0.0428512762193145,0.0508705449359789,0.211146233132881,0.0685168732077656
14.615,-1.08262646959047,0.142943935059937,0.0797002520298508,0.0337860201872579,0.124308222058282,0.0328702242940204
14.62,-1.08157026621038,0.112636999461133,0.114370324226158,0.0331419993655651,0.0336370225297538,-0.0041924339675843
14.625,-1.08765398564281,0.08054263009951,0.147199367039149,0.0344996340572834,-0.0453859894123109,-0.0337650865370051
14.63,-1.09190114272836,0.058154716999864,0.17278183049124,0.0616411353329215,-0.108468075016459,-0.055115414307551
14.635,-1.11330365093059,0.0292839218176084,0.213883327458181,0.161084790711252,-0.223576286920031,-0.0795196122812134
14.64,-1.14088618828275,0.00248757900696551,0.240812757099047,0.220976901973953,-0.306834393335979,-0.0998820944224047
14.645,-1.17221697836387,-0.0196532013174129,0.259032094253271,0.281559561849394,-0.388950487288447,-0.118374208342526
14.65,-1.20042789905657,-0.0597796247475451,0.269049965147065,0.33660643922238,-0.46015510525971,-0.15833385001366
14.655,-1.21582669146483,-0.0709265528521895,0.261928892731167,0.353361904621124,-0.549667736662606,-0.184472900249146
14.66,-1.21435214530371,-0.0834856253440564,0.237142190903392,0.362280455916139,-0.640714740243903,-0.209067003783466
14.665,-1.19803246848882,-0.0881927515132805,0.218692863713993,0.382519805233795,-0.717348583195803,-0.226458781329764
14.67,-1.18694431506517,-0.100400793567645,0.205118318903932,0.439228991024985,-0.783580268156334,-0.250411929173365
14.675,-1.16408519952139,-0.0944112045621555,0.20481211986007,0.492648372605749,-0.820780955366053,-0.27287318568603
14.68,-1.14139717621086,-0.0823198851811153,0.212115603173728,0.491362456025553,-0.848926716077204,-0.296180744036856
14.685,-1.12340600751979,-0.0795547222431492,0.216113346497447,0.424993808352942,-0.860359480220636,-0.325889497913562
14.69,-1.09173682953454,-0.0670868544948611,0.21428829825845,0.366726936933412,-0.911651148552707,-0.364371084182343
14.695,-1.09046900770639,-0.0651761596051978,0.209051465904377,0.326732428974342,-0.900780816134357,-0.412119552598048
14.7,-1.07908358640441,-0.0586561761843715,0.225139137111635,0.282359993772876,-0.881187771744063,-0.450230981520366
14.705,-1.03918916373171,-0.0463334931399013,0.247991768618593,0.299869503733158,-0.89221321753161,-0.476482253724009
14.71,-1.04410314904393,-0.011575858681026,0.241403214673723,0.31933657966577,-0.893700592429136,-0.499521342068454
14.715,-1.03823474279901,-0.0371193286430887,0.237591838433868,0.342791851636868,-0.853352022091498,-0.488670840326371
14.72,-1.04758206106401,-0.0119493277643203,0.240779800364203,0.396308593546659,-0.81044673512239,-0.46518975000426
14.725,-1.14350099229482,-0.0837273815796243,0.220290734661309,0.456616748729844,-0.768132532492075,-0.335268970330094
14.73,-1.18894084197967,-0.128070549529584,0.209277043787254,0.510402808169923,-0.693720727474069,-0.298703440981652
14.735,-1.27916042770084,-0.116505531359453,0.141913311729999,0.733797629009801,-0.583162770335027,-0.27828564995187
14.74,-1.25434552182745,-0.128266046227798,0.111985677611355,0.823733139925998,-0.551692843885329,-0.256792913599081
14.745,-1.19506045632738,-0.134012979836459,0.0855049210980929,0.846255861346112,-0.642188285967086,-0.208244411922347
14.75,-1.18693859347678,-0.126249817671582,0.0747175915364304,0.804886929646371,-0.745880812697114,-0.162073072860309
14.755,-1.17334408522329,-0.0869711764408467,0.0705554010619144,0.627032768338828,-0.89786415488269,-0.134213717830696
14.76,-1.20383273346732,-0.0426434642719817,0.0853604461141757,0.430217729620952,-0.931806398454084,-0.135894648742078
14.765,-1.22650124001936,0.0040152993178115,0.0966937519948006,0.26908401458592,-0.936481624321555,-0.161169926452002
14.77,-1.24078231615059,0.0382220626595146,0.0865752243928944,0.178827776065219,-0.888551026098591,-0.179852844119968
14.775,-1.26314060883021,0.0477321651422434,0.0608329999184038,0.140298773756767,-0.74591049174116,-0.191713256470029
14.78,-1.23829050353989,0.00568889055343106,0.0381434088670918,0.174781421566898,-0.601750164857125,-0.206221113363885
14.785,-1.26081794543067,0.0296497130342164,-0.00630189672908277,0.168968194796608,-0.451784016882291,-0.171235643310269
14.79,-1.14969696042647,-0.0222766156503097,-0.0257755885768575,0.128248858383281,-0.283761701979354,-0.0923276577831236
14.795,-1.11525562633222,-0.0533741130628106,-0.0742831499253785,0.00154030972082657,-0.150883878665883,-0.0291155988022455
14.8,-1.05496077149716,-0.0886174062702661,-0.113087768273407,-0.0832502061225771,-0.0483667715072095,0.0295753194937491
14.805,-0.990985575491032,-0.128627838327917,-0.148431416874177,-0.0930174143931907,0.0197618869666632,0.0664512648772045
14.81,-0.956183760639098,-0.171481770666329,-0.200564075346774,0.000747489569277158,0.0914344333911238,0.0772116450731969
14.815,-0.879663703399593,-0.223187105965773,-0.197403136868403,0.0519553859273192,0.14230281094963,0.0989725329583163
14.82,-0.812464350598094,-0.26398762023732,-0.176408122035696,0.0785422093103299,0.213647458029583,0.11462676525116
14.825,-0.773564155425253,-0.291319665557544,-0.152456098667694,0.0618677659771526,0.275924478023007,0.12307042054705
14.83,-0.747430245828187,-0.297400103233675,-0.127823487613263,0.0725034524125292,0.310523532613688,0.148025425948891
14.835,-0.730147093875787,-0.302457471357554,-0.10446889111876,0.088830969622556,0.350922970226815,0.168381318449974
14.84,-0.746927466169823,-0.338529864475756,-0.0881923392510696,0.138798565682798,0.400851934237215,0.150472289554548
14.845,-0.723689546408823,-0.266725565446644,-0.0566515409251941,0.225663487180506,0.404260302832,0.0199849125919737
14.85,-0.799072949048264,-0.232533408955053,-0.0588760027422699,0.296035532270816,0.400931186389397,0.0534487945589649
14.855,-0.829512841891806,-0.195964794985834,-0.0306474740350514,0.339089270467462,0.470326654185656,-0.00109816976759509
14.86,-0.86983111333283,-0.155238657440366,-0.000142188733082064,0.35409226794227,0.513171814018112,-0.0471510007088629
14.865,-0.894357864657919,-0.108627886129854,0.0157496290690083,0.349108372487595,0.54611134519576,-0.0678132460153149
14.87,-0.919930599602994,-0.0975716193102233,0.0216656467596656,0.323565197221885,0.623517163994421,-0.12772943326935
14.875,-0.962495564541175,-0.0535549605598442,0.0500672320452926,0.291792245757539,0.66504569974628,-0.164419301567533
14.88,-1.01157387678278,-0.0250329636288477,0.0730541079810559,0.222367895595622,0.681549355849832,-0.191705298811303
14.885,-1.05085029500565,0.00216841207350624,0.0700332998220107,0.202455030527747,0.674507442892604,-0.224764813826169
14.89,-1.09091561844594,0.0277121673502158,0.0759244475458394,0.210308981552527,0.618748362266641,-0.252225557934243
14.895,-1.12512482047442,0.0306402241253454,0.0771602137291486,0.223836338569316,0.581973114560453,-0.255546689033508
14.9,-1.15662845155057,0.0321436534029456,0.0761363712618584,0.281031120145774,0.560756152418397,-0.255546689033508
14.905,-1.17717319113782,0.024411144046636,0.0696685172262653,0.328492455592596,0.56562221151076,-0.251102804129499
14.91,-1.18832478001489,-0.00305445966360159,0.0483141710305598,0.357026994228363,0.550464215493514,-0.230734508929985
14.915,-1.15853540206294,-0.0209829446841378,0.0333623841464688,0.354532987722371,0.548065034587073,-0.203086037846221
14.92,-1.14522830507788,-0.0503524849777506,0.0382968940388231,0.338101734753358,0.557052386622023,-0.187592667846855
14.925,-1.10773671620042,-0.0451252919424362,0.0565684682514722,0.275534173014214,0.512751320249493,-0.1859100908041
14.93,-1.06738307604382,-0.069362758353897,0.0395809531852707,0.189326753444335,0.529523634173187,-0.152258801828964
14.935,-1.02635491283923,-0.0856826044909424,0.0558217512666789,0.163011312762081,0.538954096948985,-0.142109872574685
14.94,-0.991680464109114,-0.0944184105396327,0.0744270461653492,0.137864696382474,0.533302200917861,-0.119952225690912
14.945,-0.964576543278351,-0.0996866644289767,0.107223123085139,0.0989620103721171,0.473016447847062,-0.0866654070988541
14.95,-0.958914861036913,-0.111487328920067,0.095035139895794,0.078207844522491,0.39510182792879,-0.0756052809284626
14.955,-0.951600942002142,-0.144298365449158,0.0864734336702733,0.159077157559813,0.297616154737443,-0.0819129801576139
14.96,-0.939644079455459,-0.163074554950626,0.0826248791476852,0.242147654243184,0.202725166623681,-0.113746001239953
14.965,-0.932154415954836,-0.16571670001403,0.0896768043806528,0.270334661862156,0.113750387301187,-0.157837623770721
14.97,-0.922164686812778,-0.169864436006921,0.0866064582066969,0.262619739861113,0.0782188140858894,-0.196675401370032
14.975,-0.916521735928687,-0.158751030984837,0.0770701920321695,0.254829414254029,0.0398047581058345,-0.207870920365213
14.98,-0.91658085438259,-0.161886846192139,0.0669600633383636,0.253232395295115,-0.00404315707900343,-0.210917263385983
14.985,-0.881912678667352,-0.151141126146105,0.0456538581880675,0.22719267779411,-0.0285680270905241,-0.205790145262574
14.99,-0.860647300705216,-0.165966307244286,0.0378312083237748,0.191984492485767,-0.0171771872089909,-0.190554993165348
14.995,-0.843875496804064,-0.160769263706683,0.0403854643396858,0.126523367515701,0.029472964727697,-0.175969217265506
15,-0.841782819522549,-0.154930195719981,0.055428776402417,0.0656322160379701,0.0849987350597861,-0.171335252921246
15.005,-0.849253167228769,-0.154078472222263,0.071671575818011,0.0309700563713371,0.124498721076028,-0.165460625180155
15.01,-0.853321314355935,-0.141018680198588,0.085454445089247,0.010474695136744,0.170366579841229,-0.155911271783717
15.015,-0.872239363841062,-0.138432147166152,0.0903316635720335,-0.00195574077627226,0.230459500046461,-0.147102972611152
15.02,-0.880724032953721,-0.139954150892701,0.0990952477892484,-0.00673226178437853,0.271177925806952,-0.138874937900438
15.025,-0.898024922318666,-0.129288694010277,0.0983269959186659,-0.0456928058484086,0.317758568360656,-0.135957429073444
15.03,-0.903116231951188,-0.130980361418573,0.0946869253645355,-0.0507192627360538,0.335464592827321,-0.121655515527262
15.035,-0.916337325287284,-0.133917403335404,0.0758267570800281,-0.0530352855192585,0.331662005807655,-0.103261943711145
15.04,-0.918598846332439,-0.136254836528512,0.0596501128448163,-0.128920520893329,0.315067267100735,-0.107759287457423
15.045,-0.919889910701857,-0.143279188551239,0.0433157089696316,-0.245440266660667,0.317352972702777,-0.127074108523473
15.05,-0.915465080180125,-0.153977849630751,0.0302657048554456,-0.295977370775887,0.34873160835246,-0.121322919655021
15.055,-0.915966650634397,-0.169019718213018,0.0278279835609661,-0.262476375786464,0.445541811218006,-0.0744390298114469
15.06,-0.918997272847652,-0.180685678208555,0.0301594777258612,-0.229640328797629,0.568123797642513,-0.0197192133615914
15.065,-0.923092017779636,-0.186677266547237,0.0299851658227342,-0.244030349189012,0.723696717713992,0.0384800083806861
15.07,-0.937949884212354,-0.203567196896702,0.00553184124290159,-0.238526067188785,0.791092894226987,0.0622418939469176
15.075,-0.94329674819343,-0.201042674087558,-0.00616811055836869,-0.222617719613773,0.79217731838365,0.0867115629845595
15.08,-0.956067153893128,-0.212938283041936,-0.00660109987572293,-0.199665429927483,0.719980227531232,0.110476687873362
15.085,-0.95745258558956,-0.210018208470668,-0.00364964622302401,-0.201714180071516,0.617519475080294,0.108245594355359
15.09,-0.965653491279669,-0.217652642592252,0.000446540510192939,-0.216435515523128,0.553103741445632,0.0916562032397529
15.095,-0.970302453184834,-0.217692581029232,0.0124336765057562,-0.221298394894063,0.454566256787734,0.0568824500703382
15.1,-0.960180854480781,-0.211161127082317,0.0152808899502655,-0.250406924894485,0.427213330171432,0.0167242773321734
15.105,-0.951578856753594,-0.216214940485333,0.00313081186086273,-0.227933789844802,0.435828021647039,0.00956103950738907
15.11,-0.944867450382615,-0.203602481773073,-0.0183900571872982,-0.176397890452386,0.492805166742417,-0.00632099062204361
15.115,-0.928259363096862,-0.198871679024747,-0.0340042181170247,-0.159749791026115,0.580195202025792,-0.00632099062204361
15.12,-0.921949399453525,-0.203105054519915,-0.0592014180258695,-0.140589864350721,0.681339513692224,-0.0015310089531951
15.125,-0.92256858423092,-0.207878923685885,-0.0775126261938021,-0.130429118871689,0.742125249637575,0.00319115997176093
15.13,-0.91235926727461,-0.203895295224477,-0.0840590027982318,-0.172419269949779,0.816858005668599,0.00486408150594955
15.135,-0.914729851119898,-0.209652180516198,-0.089755324484537,-0.227555947566444,0.863784625902292,0.0058959536254406
15.14,-0.919340721567495,-0.215475891708837,-0.0737709839846194,-0.257974249341261,0.885090384423795,0.00972400530126392
15.145,-0.931023926813093,-0.211296141080211,-0.0506026033981665,-0.311788230695256,0.889555588918391,-0.00110424029050786
15.15,-0.919174623507468,-0.207646686455734,-0.0387968410345556,-0.33065921676069,0.869759594668435,-0.0305330950567817
15.155,-0.918744888483477,-0.206574161105323,-0.0207844781900328,-0.279414558730608,0.872628022320257,-0.0396005393648291
15.16,-0.906089839504844,-0.197253931300103,-0.00179924125571892,-0.210125124279167,0.86826639391512,-0.0394132234800063
15.165,-0.907905173769782,-0.194881405679167,0.0145485042849278,-0.180708258345274,0.839801606787263,-0.0380850471556187
15.17,-0.918307453805241,-0.191413519589623,0.0305122125110793,-0.127824521421709,0.816813170049966,-0.0428187714810568
15.175,-0.927075910268921,-0.188893995846453,0.0436814307882522,-0.0918226005784414,0.795352065459125,-0.0450001799090542
15.18,-0.927968385159687,-0.179751271401152,0.0648595284454343,-0.0743713862638545,0.781677554112528,-0.0541406196733926
15.185,-0.931275482500196,-0.180655830203346,0.0661935767547873,-0.040715488965047,0.753135635944114,-0.0575240509173975
15.19,-0.91648356768369,-0.190715472838328,0.0735204696827227,-0.0223303921128513,0.746134430469958,-0.0512765192552633
15.195,-0.917109393359259,-0.194392379011333,0.0630653134969202,-0.0567350942130426,0.742764507309774,-0.0509195886096736
15.2,-0.919869604897067,-0.193658562484586,0.0481450948227821,-0.0959237182041977,0.741780535020744,-0.0579152419925265
15.205,-0.923069308755374,-0.197616497162531,0.0159070354726356,-0.105525803692413,0.744950083891551,-0.0655972445541712
15.21,-0.941917787845483,-0.194580538521519,0.00320671378567459,-0.10535854076335,0.749521009001804,-0.0649623274803162
15.215,-0.968073308993938,-0.18404674285166,0.011175158387876,-0.132597758563283,0.734688391122112,-0.0654357994621951
15.22,-0.981047587530637,-0.186309897073483,0.00865096519907287,-0.137131836046252,0.713626254846989,-0.0646652059368692
15.225,-0.984922500918639,-0.187239677778737,0.0197446410711004,-0.148716313116773,0.689532758411077,-0.0615772244243468
15.23,-0.992984703237722,-0.181015194641571,0.0250745145884818,-0.134652261595197,0.663318066733845,-0.0514256475913294
15.235,-1.00455328532875,-0.174890741066278,0.0386592777298906,-0.104513949243651,0.624163437663682,-0.0432273370274937
15.24,-1.00927419969344,-0.173140485917067,0.0544280910506378,-0.0497649758872915,0.576113817005209,-0.0448084030653041
15.245,-1.02008831968409,-0.170113316286523,0.066813028602339,0.0198872420750863,0.481482110690183,-0.0509525334034171
15.25,-1.02660209443908,-0.164396998072814,0.0709289313197616,0.054488588682046,0.407310727744522,-0.0396798385275446
15.255,-1.03666163129006,-0.159122651351697,0.0716451271393019,0.0682298714647815,0.321573604925573,-0.0353404750954731
15.26,-1.06130225362072,-0.152475251177697,0.0710346236458109,0.055770475691512,0.225903051629441,-0.0392661120453844
15.265,-1.06593040906268,-0.138008323119739,0.0736049977128103,0.0427081081906104,0.144865963879912,-0.0427766450601784
15.27,-1.0704290581537,-0.121077435103802,0.0679271455745015,0.00835385961119551,0.0639892060609944,-0.0419820233756366
15.275,-1.07648001875327,-0.101900858621954,0.0715180055984405,-0.0415872638612367,-0.0276918895040676,-0.0320313005858754
15.28,-1.07750237883424,-0.0917871849414922,0.0697144162538654,-0.0624826136898691,-0.118320359214443,-0.0266479589143221
15.285,-1.07964922997926,-0.0831008851888158,0.0603318538224681,-0.070198809424804,-0.216046241497065,-0.0138985795006265
15.29,-1.07344880511538,-0.0803944692110013,0.045461605630372,-0.084091317648669,-0.264950059290927,-0.0021492819379787
15.295,-1.06163127038163,-0.0815262770960854,0.0340375520657022,-0.0719297730077451,-0.302985627319616,0.0119404591384279
15.3,-1.04648040958259,-0.10214427354998,0.0226036821736809,-0.0932256099543334,-0.349930167342106,0.0140558951053684
15.305,-1.02810336808788,-0.112307528172138,0.0109412443955988,-0.129000370249741,-0.392758000785854,0.0143417977630013
15.31,-1.01192154681786,-0.123731863989736,0.0157820949853612,-0.153808039578459,-0.389469901895019,0.0043247449075672
15.315,-1.01057350940675,-0.149822065128702,0.02563851005138,-0.104910370952237,-0.351288088629027,0.00469416952441549
15.32,-1.00650697710842,-0.163009574649926,0.0403633773274121,-0.0577041551040995,-0.29177377363319,0.00914882366284614
15.325,-1.0093522654677,-0.189026893257365,0.0512678625869243,-0.0222015022174568,-0.208924394355516,0.00526357636810558
15.33,-0.998726918133064,-0.197825873664649,0.0413327862945114,-0.00313371690326206,-0.159310726068385,-0.00172145907476833
15.335,-0.989903420341862,-0.219397060072551,0.0155055733577005,0.00641066469807202,-0.115462784449425,-0.0127488544628384
15.34,-0.979207020757273,-0.228711845617427,-0.0183818006564017,-0.0415540267463484,-0.0605593065695734,-0.0239345320165079
15.345,-0.978510981641383,-0.228438961827663,-0.031396877750173,-0.10344285907871,-0.00284937729520258,-0.0295331887900829
15.35,-0.984688484239906,-0.222576823198232,-0.0552885917018724,-0.157399083102148,0.0308227598841863,-0.0346903456319421
15.355,-0.983537205478153,-0.213255309513709,-0.0442913577408236,-0.23687158307111,0.0721901980462215,-0.0468501847441
15.36,-0.990173027221427,-0.2058346864871,-0.0351684840467181,-0.271086095316467,0.101232626950402,-0.0587508882830867
15.365,-0.996205610835979,-0.201883611744859,-0.0253110355747238,-0.274408501540495,0.127689200495177,-0.0528622795601655
15.37,-0.994516974132756,-0.204750401767047,-0.00736451701166313,-0.267053835519033,0.121223092144971,-0.0655432638873842
15.375,-0.998840916576632,-0.204533230614347,0.00250351945320031,-0.276872666970072,0.116949593781368,-0.0703058258499291
15.38,-1.00022470180421,-0.212026773437424,0.0125294194594904,-0.263766238629904,0.107746742211806,-0.0695315955253551
15.385,-1.00186057408329,-0.218904600620922,0.0268846881592171,-0.247293693027338,0.0956964302084456,-0.0642763523049207
15.39,-1.0091640088303,-0.235282426540959,0.047693747311821,-0.250606956324959,0.0679975061241353,-0.0449002997707872
15.395,-1.01118969468468,-0.247340074011704,0.0593551337683476,-0.262444550178129,0.0443455386837649,-0.0386316656336021
15.4,-1.0272177870484,-0.257775592712498,0.0649999799948907,-0.253227039601782,0.0338451575640204,-0.0262473649065292
15.405,-1.04181741905856,-0.267071919940219,0.0646262454872727,-0.258826914763438,0.0420780583354157,-0.00688975180365218
15.41,-1.04869584058549,-0.272537344314722,0.0773630821983155,-0.251721737911042,0.0766861146445239,0.00502295019348552
15.415,-1.05340911844306,-0.28312419681019,0.0965466658093359,-0.276326878314108,0.100168186173671,0.00814985589255744
15.42,-1.0730463681357,-0.271482861815718,0.102154529070578,-0.292853589053002,0.120586588494326,0.0198447739273419
15.425,-1.09967708407195,-0.272165982401954,0.109764589906602,-0.329053745901979,0.141270496565301,0.042419926272354
15.43,-1.12806295947482,-0.2631856816635,0.121929105713488,-0.327624858522157,0.124362850598276,0.0531585440038092
15.435,-1.15949914216624,-0.244858814803415,0.133869416441515,-0.334125819698064,0.118715709107567,0.062721582211339
15.44,-1.22239204653354,-0.220868038532991,0.134438184233901,-0.337028939475737,0.133420999668409,0.0725039699978164
15.445,-1.31734887774759,-0.189863610436677,0.116368294879641,-0.348028718275434,0.205133521768482,0.0889121369578165
15.45,-1.38611967824056,-0.17358628170074,0.0956214664139753,-0.322672913301108,0.294709226652924,0.106418739092168
15.455,-1.41145593699317,-0.176181033695195,0.0680778750154726,-0.289011101491778,0.421934642815793,0.136378818606898
15.46,-1.36880634648053,-0.196542223030074,0.0311460592964147,-0.232405243198957,0.535072047217876,0.161324918344594
15.465,-1.29798154840741,-0.223214339569769,-0.00480205436509675,-0.127312755483925,0.5651017161401,0.161739306605371
15.47,-1.23931226056014,-0.266577632655202,-0.0443194225927765,-0.0218817532790937,0.498764423371218,0.161673889289569
15.475,-1.18494428710117,-0.304967716901847,-0.0659526946912252,0.0723312123523845,0.26964875381426,0.164378890807998
15.48,-1.15705918293486,-0.315338428098952,-0.0482772539718636,0.0945140849883188,0.0164851054369203,0.144962232191647
15.485,-1.13760025337628,-0.310103332859439,-0.0327536893342556,0.092641731898973,-0.236681686385709,0.10322397661966
15.49,-1.10969325989764,-0.31096898194854,-0.0462991850728584,0.0845155186052036,-0.524584195991668,0.0418739186763999
15.495,-1.0731967396513,-0.308300717195835,-0.0645929822954055,0.0357101395552268,-0.738108507130643,0.000626067359445434
15.5,-1.04228714315559,-0.283201404750814,-0.113907851482957,-0.0696812803556918,-0.933688480251134,-0.040009508785822
15.505,-1.02328048777336,-0.262449018561084,-0.158022475818176,-0.165566825081303,-1.03398864571976,-0.0717354768814874
15.51,-1.02218027403223,-0.234690687056603,-0.198979531709604,-0.202208374595982,-1.0480000787151,-0.103549149663753
15.515,-1.03030565215841,-0.200943301238216,-0.174117221504188,-0.192171114859907,-1.01918003482352,-0.129297774465249
15.52,-1.04903482891453,-0.156383961415292,-0.122131654191845,-0.147486721573297,-0.99762292511107,-0.136926489320278
15.525,-1.0672147930504,-0.124085400948978,-0.0668989168359885,-0.0906582840737439,-0.981656369951283,-0.129697527392444
15.53,-1.06726452585064,-0.0912422907092614,-0.00575880540403634,-0.0321263248465674,-0.933772935658233,-0.102591518256394
15.535,-1.07391683618003,-0.0627134917743289,0.00932116399234459,0.00163881358838685,-0.866482823112919,-0.085389422543158
15.54,-1.07356105152115,-0.0368211738788416,0.00410246577471621,0.0204940273978697,-0.782622605013271,-0.0635403879149392
15.545,-1.07061780007021,-0.00952345960103098,-0.0167908131769311,0.0345982939214115,-0.681197644409225,-0.0554695315329094
15.55,-1.05533892669986,0.0146380393968458,-0.0565074873041913,0.0273793979561984,-0.553716186738374,-0.0292488235470216
15.555,-1.03651416167931,0.0382490019677358,-0.0896117032645069,-0.00271943974684323,-0.450841818754324,-0.00518968626577324
15.56,-1.01419288457038,0.0629950307920029,-0.128229123109593,-0.0550553035310419,-0.343866875972201,0.0250461884308033
15.565,-1.00104829675774,0.0853932464751408,-0.178443353625635,-0.104987921314143,-0.265099642532088,0.0460779359093846
15.57,-0.969196748675068,0.0961080879892081,-0.23536290663904,-0.135865106090974,-0.201981527017997,0.0714562046392726
15.575,-0.936786032763698,0.110991665414574,-0.279588426349577,-0.175823313188973,-0.195981186899136,0.0744563820174048
15.58,-0.894947353722575,0.124587795317669,-0.32744495429597,-0.204177061210228,-0.221983063345978,0.0621623826260031
15.585,-0.868534702656798,0.136332842155784,-0.360463179049028,-0.217574370179489,-0.291722181642415,0.0338851533063455
15.59,-0.84857037128383,0.157844051527351,-0.366143743523727,-0.181338818291225,-0.379172607352236,-0.00755459797005963
15.595,-0.844877556693257,0.175998005967793,-0.364534570346789,-0.148409384460836,-0.445742655886251,-0.0388904170881148
15.6,-0.843584039020226,0.183991658732157,-0.345898121517617,-0.134349183009242,-0.447930719170543,-0.0669807535098945
15.605,-0.856568502948795,0.184352792294619,-0.296865472640343,-0.155070255515242,-0.419334397697739,-0.0745855402457499
15.61,-0.873842742088443,0.178778556023022,-0.246019388332255,-0.166284430597833,-0.359894178559318,-0.0632576761416826
15.615,-0.883277259142033,0.17186295231199,-0.200382740841888,-0.17356001726937,-0.3062123798573,-0.044751569772296
15.62,-0.887349799763785,0.14675247577642,-0.137485421468367,-0.193222513607395,-0.238450607441971,-0.0206566786327963
15.625,-0.886889774270663,0.12148226705623,-0.0816547230818404,-0.212888571944941,-0.173158788383262,0.000373648181493796
15.63,-0.896684914866706,0.0827346350938656,-0.0365905343946048,-0.247127044953757,-0.0716071955688632,0.0200437186334507
15.635,-0.90190608385322,0.0462222872693787,-0.0170808053810051,-0.272446153260513,0.0637607241076594,0.0390299522149162
15.64,-0.922399765927043,0.0170162529536386,-0.0142083567622985,-0.28132149447967,0.165165811155054,0.0491101223479474
15.645,-0.943262098259321,-0.0272836684644096,-0.0315046237001929,-0.266868997934789,0.250396329416523,0.0523166317368983
15.65,-0.960739296044695,-0.0497957871277003,-0.0644656039290703,-0.256398956408188,0.320339274871953,0.0582935072144652
15.655,-0.972665972174394,-0.0767045506493711,-0.0772032669696757,-0.241693016638981,0.39220663883585,0.0763049261633617
15.66,-1.00418092627237,-0.0934987441618303,-0.0896634384776426,-0.249212378693114,0.448330798585563,0.0942429676556471
15.665,-1.02202279184829,-0.114582150879043,-0.0963757077157778,-0.201635427458874,0.483663683474926,0.102035909794225
15.67,-1.04677718744895,-0.12587849647899,-0.101443776850291,-0.174222000495542,0.490131952420819,0.106638724122432
