Header,trunk_Accel_X,trunk_Accel_Y,trunk_Accel_Z,trunk_Gyro_X,trunk_Gyro_Y,trunk_Gyro_Z
11.36,-0.962555846966353,-0.096748390699776,0.275915332413361,-0.047612248040686,0.0552676442856888,0.0111702647521197
11.365,-0.962250305946897,-0.0934363319984475,0.284019727200635,-0.0410865356325113,0.0652498213053245,0.0155106238851682
11.37,-0.964561274493639,-0.0933217632159127,0.283720407228673,-0.0384012835364187,0.0664922593728722,0.013927436763785
11.375,-0.964967258020428,-0.0972211289885762,0.277438387849825,-0.0341290121568965,0.0677847710435764,0.0217779837548733
11.38,-0.968286729766511,-0.0951930147713256,0.277807139666424,-0.0391702389390342,0.0716470524076338,0.0212089908224818
11.385,-0.966317678537376,-0.0931731970433711,0.276920011503686,-0.0367031626948722,0.0691799779707183,0.0203681506139008
11.39,-0.963406732183959,-0.095088414258092,0.275176756048789,-0.036780667630136,0.06565895510018,0.0225998416814209
11.395,-0.962789160409043,-0.0932989603387431,0.274235482304945,-0.0390994062177564,0.0600149073173427,0.0217779837548733
11.4,-0.961366879829735,-0.0961059881900471,0.269504689415125,-0.0414320748846538,0.0579307172078471,0.0217779837548733
11.405,-0.962522772637034,-0.0939444528057718,0.273168149267915,-0.0409386516819558,0.0496005121236616,0.0245227525802745
11.41,-0.960189892288205,-0.09514413261342,0.271130223817624,-0.0412454232573509,0.0448601925586393,0.0254430677741766
11.415,-0.964079265054389,-0.0948777524926001,0.272487166675197,-0.0423769213968564,0.0444015711545944,0.0288375639178218
11.42,-0.958380287913969,-0.0979980007617501,0.271908084142648,-0.0438003059659146,0.0432170419704167,0.0254430677741766
11.425,-0.960936146949572,-0.0976486446177293,0.276450156091192,-0.0473538935184479,0.0453172871652396,0.0258355175215171
11.43,-0.961349168219521,-0.0947186135597278,0.278473412929419,-0.0486928643297954,0.0529534332454205,0.0283430253655937
11.435,-0.963176673878491,-0.0949237758270295,0.276188516197405,-0.0570754637432782,0.0544155681900029,0.0242213718593121
11.44,-0.962098779104238,-0.0932699152494905,0.276650860260259,-0.0601151286722988,0.0610941257796338,0.0235439656767034
11.445,-0.96329564092545,-0.0899817545203288,0.278579063519487,-0.0581141805069638,0.0670969641741887,0.0215430195451851
11.45,-0.965067270276692,-0.0898752001586358,0.277716634350804,-0.05777599156298,0.0674629940061614,0.0186106689421475
11.455,-0.969055720260683,-0.0927041454170743,0.280407843976088,-0.0616847863717643,0.0718416553584272,0.0185590264211444
11.46,-0.964134786583962,-0.0896377025615235,0.280129629441446,-0.0632359236478806,0.0768636506247909,0.0164550218964289
11.465,-0.9631692453528,-0.0946334627739727,0.277595032349083,-0.0558089191251178,0.0723552870799869,0.016697532641218
11.47,-0.963870317029446,-0.0952387089080631,0.28062719604273,-0.0538257141001617,0.0684721130542362,0.0127311210794677
11.475,-0.965429630468782,-0.0960114031824661,0.278649867072403,-0.0541689829194791,0.0672604574486958,0.0163122813063104
11.48,-0.969800214200456,-0.0930226659273055,0.273578100434175,-0.0485755875706673,0.0691780951973672,0.017524521821968
11.485,-0.968386579859355,-0.0954314166266655,0.272258266463205,-0.0480701739848109,0.065592111253918,0.0224942642212363
11.49,-0.965233584455765,-0.0937879397005131,0.273755299386955,-0.0460917313705299,0.0589405010203676,0.0236712279389224
11.495,-0.963756788723837,-0.0913769194192816,0.270886131733074,-0.043375747021555,0.0538620629574051,0.0239083082117445
11.5,-0.962117232216867,-0.0881491256412022,0.271291935380798,-0.0441911535000907,0.0546774694359409,0.0229996778070927
11.505,-0.962599301169192,-0.0919105262035012,0.272484015967354,-0.0449105054140091,0.0526636406502211,0.0275549817512362
11.51,-0.962578045309916,-0.09558884332979,0.270267049132526,-0.0449105054140091,0.0497312102280752,0.0271076243533962
11.515,-0.96185398929724,-0.090694582808596,0.27329850150632,-0.0396916915790737,0.0524196388471608,0.026664761826396
11.52,-0.962240948372682,-0.0874337902635366,0.273263069701103,-0.043550017100096,0.0529534332454205,0.0254777663396
11.525,-0.9606810688651,-0.0898013483473973,0.275519419083155,-0.0461321994662285,0.0527618691780986,0.0219056930032807
11.53,-0.963193421543761,-0.094051410716745,0.275061834335446,-0.0461321994662285,0.0489186653386756,0.0240981445177132
11.535,-0.958018439055934,-0.0930241597547675,0.282870882261161,-0.0472077082160832,0.0451930619692342,0.0229996778070927
11.54,-0.962513679389879,-0.0912520026337899,0.278333770476345,-0.0506262814053631,0.044390670214802,0.0250176675584876
11.545,-0.96098137229932,-0.0908421972073293,0.276603209603258,-0.0478912086588483,0.0489942214590604,0.0280335206934663
11.55,-0.962708951570674,-0.0903449260769128,0.276439339357221,-0.0474025505094211,0.049385663282248,0.0260782432957729
11.555,-0.963429047461864,-0.0909609355568573,0.274862799203652,-0.044616421292774,0.049118626519215,0.0269588459476311
11.56,-0.959426020439642,-0.0945199702377173,0.277201283807457,-0.0420120634964653,0.0521867918374547,0.0278864558786154
11.565,-0.966042608586653,-0.0975953821577024,0.278016256895011,-0.0357530802977161,0.0507564940518431,0.0267879879565962
11.57,-0.965632319773966,-0.0949479439500607,0.278562736016927,-0.0364484177541254,0.0571454457719063,0.0278864558786154
11.575,-0.963093144812994,-0.0930434674804871,0.279440001555435,-0.0412334595376334,0.064923646088988,0.0273929930707821
11.58,-0.968635003179359,-0.0933314425395905,0.284633780363792,-0.0381983500561133,0.0650525068072696,0.0265468917017391
11.585,-0.966371835853189,-0.0952490872364543,0.281431030210049,-0.0424671173095703,0.0640388791390788,0.0291081517934799
11.59,-0.964768822970411,-0.0912762346352559,0.278090571935251,-0.0418217507466201,0.0571258055750522,0.0297535183564301
11.595,-0.965188651894084,-0.0919600694446658,0.280676886080405,-0.0444287656753116,0.0538051501408789,0.0295340102412091
11.6,-0.96406938188,-0.0915562719267918,0.279089936408396,-0.0470688358304454,0.0529534332454205,0.0319180608861305
11.605,-0.956910398879977,-0.0874483307154509,0.274666615704216,-0.0473538935184479,0.047310556922568,0.0305160847975342
11.61,-0.959823286112224,-0.09072682451044,0.2734471735049,-0.0521826197162803,0.0432379308387105,0.0278574290104476
11.615,-0.961224705649325,-0.089816414678787,0.276474016775956,-0.0495197505630737,0.045068196482888,0.0269422963999291
11.62,-0.960409405409996,-0.0941869932668385,0.28032630638378,-0.0478498995283472,0.0414804968784402,0.0288601487885303
11.625,-0.957886620526179,-0.0959500564051966,0.277581469213814,-0.0508773066461425,0.0446715764790858,0.0278864558786154
11.63,-0.958510526276215,-0.0937059918803199,0.280504399052175,-0.0538251124235984,0.0456232652068138,0.0274569813118873
11.635,-0.958948661700278,-0.0902025254103484,0.277064509672571,-0.0557658882806104,0.0485609445287363,0.0254896899184708
11.64,-0.962097168251743,-0.0906454871494798,0.279155535247123,-0.0616674795384311,0.055226135938549,0.0235224925102425
11.645,-0.956841016317144,-0.0931250619435525,0.280924911166844,-0.0632359236478806,0.0586041346639043,0.0237636006872823
11.65,-0.95585661385666,-0.0944507022319401,0.284102239991616,-0.0669010058045387,0.0627269893884659,0.0194966769239286
11.655,-0.956517845631591,-0.0946324449195131,0.282997609729103,-0.0669010058045387,0.069704004309908,0.0185628553483212
11.66,-0.946989085233044,-0.0856607235765662,0.282876318380704,-0.0644576177000999,0.0788137948200486,0.0156695116311312
11.665,-0.951723417170299,-0.081685620262835,0.284815535469704,-0.0648275148410357,0.0860850779691679,0.0156695116311312
11.67,-0.952180754442656,-0.0843988101486633,0.285294147843002,-0.0636875260322201,0.0953673044097245,0.0163334402044976
11.675,-0.954296503768594,-0.0817989865466621,0.286998551929166,-0.0590999805559567,0.0932990500711486,0.0130055388160165
11.68,-0.949576464149284,-0.0874196573833321,0.28715926007697,-0.0580231286294532,0.103042908012867,0.0143546675255432
11.685,-0.954942334563083,-0.0909234420785058,0.287113250242771,-0.0504960477362103,0.1037416704009,0.0120044276118279
11.69,-0.957565417459273,-0.0881028624774254,0.284402417360165,-0.0483983189504092,0.108047868389092,0.0126448197034062
11.695,-0.955054913225912,-0.0863173908954347,0.287242464790036,-0.0439659126218108,0.105650110055112,0.0151153086886089
11.7,-0.956931089043043,-0.0884175574117269,0.282323459614986,-0.0387245328384416,0.106552985540584,0.0147578252104754
11.705,-0.958657346463246,-0.0937717673761331,0.284459064364075,-0.0375803411006927,0.103896182450272,0.0208082741096919
11.71,-0.960240860586512,-0.0946657656573059,0.282263332886982,-0.038942024932182,0.107127963659493,0.0228596880278228
11.715,-0.9610390427169,-0.0951760555850794,0.279033935844465,-0.0441016227232471,0.111392546938968,0.0197390369958155
11.72,-0.961416025487923,-0.0965370127290145,0.276091888665416,-0.0449105054140091,0.11912927594303,0.0252387298176751
11.725,-0.961611654681497,-0.0968803979089512,0.27483750999212,-0.0453492155678815,0.120929616092866,0.0229996778070927
11.73,-0.9553878756545,-0.0954883366100891,0.275804490395278,-0.0484285483035275,0.123973871698428,0.0252960254773568
11.735,-0.963733718467259,-0.096332281302289,0.268984956734859,-0.0447223478803043,0.128285081134119,0.0256497749518178
11.74,-0.963764982790126,-0.0943637818081284,0.274348378690354,-0.0503656519555676,0.122982015729922,0.0275794198905641
11.745,-0.965634997782099,-0.0984082769522524,0.269069190844788,-0.0457515565546406,0.122890890442509,0.0347960964842611
11.75,-0.966395274973829,-0.0986339604580717,0.264798831188384,-0.0464762059816576,0.116042701495202,0.0335560842339624
11.755,-0.970765607483484,-0.0988998972258176,0.262550333790385,-0.0446558424970978,0.116533170570198,0.033537222700872
11.76,-0.969272449097916,-0.0975880685374461,0.263973307400421,-0.0436888113617897,0.122651040711345,0.0361176370017241
11.765,-0.970931388678657,-0.0937466739701997,0.258435048970443,-0.0432690904628467,0.126674818463674,0.0343771802566908
11.77,-0.973675770157977,-0.0928159518684336,0.255493091557203,-0.0419177462000855,0.131871772084465,0.0338719761691078
11.775,-0.972108982292703,-0.101133741850558,0.24989265868834,-0.0418708432661344,0.137875780021371,0.0358420420633603
11.78,-0.968566860873642,-0.104605887693632,0.247464606998348,-0.0424671173095703,0.137807100456812,0.0364383161067963
11.785,-0.965070338892646,-0.106333392657305,0.250250894539356,-0.0409122101398571,0.135695447174336,0.0356608625219396
11.79,-0.965304502138028,-0.108018225113457,0.253811647347133,-0.0427646264913621,0.135720598821742,0.0397847869842179
11.795,-0.966210825363538,-0.113824850389857,0.249548591171886,-0.0426209520772702,0.136028662323952,0.0413250960409641
11.8,-0.964613386452075,-0.115162881142683,0.249721034973745,-0.0340710713265994,0.132430365784972,0.0401256614230276
11.805,-0.965286848241227,-0.115893168126907,0.251168792860247,-0.0327052518839668,0.131153562145245,0.0425234086582997
11.81,-0.967806888292363,-0.117017748380505,0.245022478437427,-0.0214772038001536,0.138668590069451,0.0364874510919746
11.815,-0.968129760434624,-0.115962081920207,0.251031665638517,-0.0108528311077183,0.149893077408483,0.0387319376048023
11.82,-0.970631831275948,-0.117510347809381,0.250898901243886,-0.0105222117755713,0.165190604106528,0.0373093773192551
11.825,-0.969968767282531,-0.115430526381909,0.249012960251365,-0.00339609528112093,0.176177371408707,0.0373487870511323
11.83,-0.97425974553683,-0.116266702689128,0.245014696144377,0.00576817694579123,0.183648777941162,0.0376686678083601
11.835,-0.977528624532166,-0.116582027510686,0.245250723361299,0.00958479746003437,0.185117594085998,0.0364383161067963
11.84,-0.973975238688361,-0.112990317031235,0.244254187535393,0.0109215217511326,0.185386294651872,0.0381498710939349
11.845,-0.972541256986201,-0.115578728635797,0.240416828518157,0.0145839251851276,0.179525181579395,0.0333875731370108
11.85,-0.970215035732532,-0.120415624806739,0.24655289276653,0.0137309191405145,0.171457949658006,0.035216469685651
11.855,-0.969268857930776,-0.119837079660237,0.244136552798633,0.0196824597875762,0.173279006142436,0.0291081517934799
11.86,-0.969641449144557,-0.119792228531678,0.24383784433824,0.0277838861658538,0.160469689610474,0.0278793180129418
11.865,-0.970233511432033,-0.116035118348422,0.242163766314972,0.0315682994200115,0.163736542753197,0.0246124602928869
11.87,-0.968546514260075,-0.1159157605859,0.241132944753755,0.0384002522252707,0.164691875916237,0.022764149747527
11.875,-0.968998958492488,-0.116764507473242,0.241401441507612,0.0458334619316284,0.17266114552505,0.01811289973557
11.88,-0.971976091786084,-0.121241315219049,0.247929514953274,0.0509770196432791,0.183434981317435,0.017099985215236
11.885,-0.966908595846018,-0.120269761007687,0.243249166884721,0.0550682486547565,0.190671237890642,0.0180461668074224
11.89,-0.965097697159927,-0.121545672734224,0.247094998840307,0.0650420039892197,0.20751254326394,0.0170476048298121
11.895,-0.965046147890885,-0.123520380733684,0.248521336744149,0.0648816249346641,0.2182642822937,0.0193345956504345
11.9,-0.962055305852855,-0.124740698184992,0.244231040264921,0.0635174219508986,0.229331773721359,0.0197889171463934
11.905,-0.961152231549534,-0.126950320954376,0.240697723772288,0.062287744146078,0.231935301762163,0.0226960694360863
11.91,-0.955672674006034,-0.130551275428276,0.240794709102942,0.0629163927005341,0.230099141597748,0.0232962773340899
11.915,-0.957268876721531,-0.131998861884451,0.24286166527745,0.0568378502413616,0.22766518107645,0.0258002052906769
11.92,-0.956101350599169,-0.132651971030027,0.238195983856743,0.0557270677453563,0.218570121960719,0.0205562897026539
11.925,-0.957535742827537,-0.138617582968716,0.236258276936198,0.0477921450985884,0.211980248926013,0.0199970777923687
11.93,-0.95481840379343,-0.142445242372711,0.233520618393309,0.0418298058211803,0.208587738188215,0.020819769047984
11.935,-0.956939895838459,-0.143984697062482,0.231901277353203,0.0357282020308958,0.201135378357291,0.0270079279623113
11.94,-0.955733736722037,-0.141606149910012,0.22523572286547,0.0389199073039711,0.200591879268961,0.0324933280438807
11.945,-0.956829064685273,-0.139981887920034,0.227045303406966,0.0370423084041752,0.200778484344482,0.0339452886064213
11.95,-0.957615746868835,-0.143752053878424,0.228157532464837,0.0357447577557076,0.198522458903876,0.0352634665172462
11.955,-0.959007855425439,-0.142082169913814,0.221814485223679,0.0367432730404613,0.207975463791611,0.037660013884306
11.96,-0.957089032728129,-0.142422920428549,0.224620850102532,0.0337549835583806,0.20805046813749,0.037660013884306
11.965,-0.959296346073509,-0.141580050254175,0.218611928085473,0.0366182766111655,0.217284229120373,0.0379589942346667
11.97,-0.960298204082576,-0.142955086375341,0.219234195053265,0.0407554496201322,0.21908956471349,0.0407070838077128
11.975,-0.960546623473018,-0.14350391460397,0.216894676509319,0.045560863773352,0.226467039687087,0.0437684841454029
11.98,-0.966032372003523,-0.14152892238906,0.208719630735347,0.0511745050440552,0.225228581673079,0.045386601093336
11.985,-0.965229981790295,-0.144895027204568,0.205828372506431,0.0549359244222767,0.222935226630106,0.04726730882238
11.99,-0.967146796787018,-0.142593293586908,0.198916705522623,0.0645855671252287,0.218466153021527,0.0524478903426971
11.995,-0.968813683517506,-0.142000003754132,0.197706597793504,0.0744963129668059,0.21466833304905,0.0539602710593321
12,-0.97014506054707,-0.14336913713785,0.19304882458121,0.0804672501633795,0.213771242402166,0.0556772780201965
12.005,-0.969042548266182,-0.145946477949103,0.186654230773837,0.0841737660433809,0.208563738098988,0.0600017717459777
12.01,-0.964512053883229,-0.145073996426634,0.185476045363938,0.0894758850336075,0.206492179265385,0.0639922416974121
12.015,-0.966235653898093,-0.144334785351208,0.184583100051563,0.0871653990619665,0.209383165997183,0.0637671306528256
12.02,-0.970650309929413,-0.144556039278406,0.180916345920525,0.0891062305130364,0.211347709921429,0.0657871652959139
12.025,-0.973540897387438,-0.137479431740675,0.180601484017686,0.0855389149544841,0.211583763528113,0.0669806823134422
12.03,-0.968560602384772,-0.137332234878732,0.179468896617323,0.0894034770728943,0.21418089280759,0.0717950505616066
12.035,-0.965626422714566,-0.136739672866731,0.177529976800994,0.0810144975322862,0.204534023567763,0.0744918027045642
12.04,-0.966383269980599,-0.131916948302301,0.179108259702798,0.0807644845688777,0.205319945197838,0.0777901671894484
12.045,-0.968614003428843,-0.131866064887847,0.178122118598122,0.0756465901145887,0.204981004355477,0.0804193168878555
12.05,-0.96468892281518,-0.129655753711539,0.175622168895231,0.0611696670364617,0.207440134096794,0.0777569957484562
12.055,-0.959156503128138,-0.120433410927535,0.18275442927526,0.0560952837394835,0.203287667608811,0.0803864122586746
12.06,-0.964231981330524,-0.123051939828493,0.181431780922615,0.0400098790895523,0.207485187284988,0.0787426458285744
12.065,-0.96233018449326,-0.118450014332779,0.184595144662712,0.0312392036301493,0.210552036762238,0.080420428472513
12.07,-0.95689511216461,-0.118871941015366,0.183612699607899,0.0173164383696493,0.211558823842838,0.0816410183906555
12.075,-0.95393705541691,-0.11122856908989,0.186242623091778,0.00667471407569278,0.212956260142663,0.0792759304094387
12.08,-0.954740736699225,-0.114861134000518,0.193042211144684,-0.00979617304763113,0.224597760374957,0.0804193168878555
12.085,-0.949848649923572,-0.110721565945004,0.193991101804853,-0.0188051235280288,0.224987451835358,0.0815285616138993
12.09,-0.955975962511336,-0.109981327663151,0.193886552209458,-0.0314556850051183,0.241552312081069,0.0843255017321302
12.095,-0.961909480698258,-0.109930179888428,0.191629856495924,-0.0451501168130294,0.264055165050903,0.0853060930967331
12.1,-0.954784024068664,-0.105634159808213,0.200250553865554,-0.0571080505008436,0.282372142018798,0.0848057829901
12.105,-0.956431755973785,-0.106153585807617,0.198685595424824,-0.0634136690426291,0.291428363718074,0.0910148473613444
12.11,-0.968481477418709,-0.100581555312013,0.195677580747784,-0.0751751481655935,0.314729152125036,0.103798060616809
12.115,-0.971364502206598,-0.102935849915234,0.1927903766771,-0.086869356431884,0.340936407610061,0.108560315961607
12.12,-0.973100584613003,-0.108798683612755,0.193081709202205,-0.0828061298059798,0.340789525569423,0.099966436624527
12.125,-0.981699723625429,-0.103802114752874,0.183999084215958,-0.0830037042033061,0.32168309526274,0.113668883077461
12.13,-0.988620793114471,-0.105766640962417,0.182140016346502,-0.0859019815991757,0.299893594089582,0.126973134293246
12.135,-0.989825629774075,-0.10900593285363,0.186528960773856,-0.0852337820740708,0.263283555465961,0.126851063853888
12.14,-0.985982342991488,-0.104279276958525,0.177607659241982,-0.0722353325474428,0.226228419285619,0.125053508358412
12.145,-0.98371211842731,-0.110577195810725,0.176177523139592,-0.0688616891310484,0.212200863670156,0.131162360475214
12.15,-0.985653343900374,-0.107343344171172,0.181681057367817,-0.0614044036827044,0.204094793226726,0.130508795380592
12.155,-0.981553837069509,-0.105728964688386,0.179883164257082,-0.0530802934318868,0.204275621280049,0.122078634110395
12.16,-0.982951578813034,-0.107434499246669,0.176968788237341,-0.0511050705577606,0.202172352210785,0.126413250511565
12.165,-0.989731010396464,-0.111266651079547,0.174913037517889,-0.0392828504072703,0.207830803801499,0.125066360391011
12.17,-0.989916402981726,-0.104709440295389,0.178250837845856,-0.0291211545619362,0.205384394550934,0.11791551607486
12.175,-0.990317521162146,-0.105705825837073,0.178798029663843,-0.0221448816252982,0.211327155433278,0.115073343355778
12.18,-0.989282282180005,-0.101781080518808,0.180825057937191,-0.0173883757025431,0.214024829459129,0.109802129255702
12.185,-0.989562097002332,-0.0994240083999803,0.18413463223106,-0.01408321857495,0.21637557695268,0.10016936150435
12.19,-0.992365435408971,-0.0999667895257644,0.184575247060054,-0.0155898369848728,0.217882186174393,0.0915140044601407
12.195,-0.990870480342651,-0.0956408693555859,0.18640592498097,-0.0136495443297173,0.214648369026801,0.0824317021912356
12.2,-0.994442177204826,-0.0929998812871794,0.186627627007016,-0.0134510759565858,0.211773723363876,0.0717167378580501
12.205,-0.99638015367272,-0.0886554351777396,0.18192907661475,-0.0200284469006563,0.203283277480122,0.0637637664498781
12.21,-0.99520383475993,-0.085810199938419,0.180427999610649,-0.0319303457720267,0.194639252855902,0.059024292875055
12.215,-0.998457208465519,-0.0855350403173305,0.183885262445022,-0.0398643029380633,0.18511963614612,0.0536695813215483
12.22,-0.99238943240142,-0.0779413339093827,0.184675329936623,-0.0504092834939554,0.163020538123232,0.05041101612541
12.225,-0.993961318819404,-0.0668892879743216,0.183798998441199,-0.0683174482252739,0.163879771553067,0.043697666596114
12.23,-0.989682210529442,-0.0585619697784538,0.182424297915802,-0.0836171365810747,0.144335567697921,0.0380910175562764
12.235,-0.985747504812322,-0.049922532486249,0.183042201047957,-0.0996097529192357,0.125171906202487,0.0311484478562306
12.24,-0.985743438932954,-0.0475473088684204,0.188184091903012,-0.112230845826698,0.114531161715175,0.0199733362879153
12.245,-0.979887709798266,-0.0477352446864308,0.186948133144889,-0.124423270910977,0.0917397908121386,0.00513117495924426
12.25,-0.974338867326557,-0.0527314819021857,0.183851447641356,-0.133214573232378,0.0653658870601836,-0.00469437997880649
12.255,-0.959026630244304,-0.0512975154409716,0.181248335086092,-0.145067535071186,0.0366309488735978,-0.0135136442167561
12.26,-0.944681994222726,-0.052182242438985,0.178792855490696,-0.158590961033812,0.0168946801009492,-0.0268251905546856
12.265,-0.930268526868004,-0.0418793369795077,0.179950676232542,-0.1813103566328,0.0080858042378765,-0.0434996696943916
12.27,-0.912881895905304,-0.0230042053071167,0.17708229271159,-0.207726492663433,0.0164679030968388,-0.0637607851451016
12.275,-0.902701322348316,-0.00411425590476124,0.183974831129097,-0.229910612123486,0.0351987428934322,-0.0791576804735433
12.28,-0.890334089158075,0.0215905135129537,0.183915176720083,-0.260174270438631,0.0766362443970757,-0.101766624684597
12.285,-0.890861231659347,0.0352688435993634,0.184154201678449,-0.294166715119497,0.142198177524837,-0.122151366410419
12.29,-0.90019976181854,0.0503663039894383,0.181122683575032,-0.332760565339503,0.208068863956897,-0.129317116998591
12.295,-0.917203140100632,0.061988215348792,0.16306083903751,-0.401511970331638,0.300480537643682,-0.122725530899242
12.3,-0.938089067830215,0.0688483143883209,0.150079800738101,-0.471909152990171,0.373746724020142,-0.104743981679545
12.305,-0.964256240367537,0.0755183812050243,0.137724123777117,-0.566827652054643,0.447240625661897,-0.0630439792076307
12.31,-0.985572739281074,0.0810541288722139,0.128015296696408,-0.646074541430396,0.49271164010139,-0.0167281486802926
12.315,-1.00500906934216,0.0966539215909673,0.128342558757596,-0.724543830795286,0.509373028924932,0.0322930965260079
12.32,-1.01751274694487,0.111713669095672,0.139689459550467,-0.787318668734448,0.500258501924606,0.0742322298171917
12.325,-1.02870324331696,0.112255099503415,0.149658954282881,-0.817670790813203,0.449899929878537,0.119781316971352
12.33,-1.03381202064828,0.122173255867551,0.180299963423683,-0.819129367049132,0.370241427251342,0.153893004551968
12.335,-1.03689300393971,0.130840304457173,0.207201544522518,-0.792556539074732,0.303338789151116,0.171629352743488
12.34,-1.04105151329318,0.129580456752219,0.24104381410147,-0.749774734783153,0.223910388298142,0.172875259203206
12.345,-1.03962369676855,0.131034575826056,0.280463915376,-0.691684166576216,0.151558919926404,0.163687858388134
12.35,-1.04249457978893,0.127320163240337,0.308176875991767,-0.619633084296787,0.0994354155623541,0.147601333087816
12.355,-1.04005520096253,0.110361017971312,0.330658845079929,-0.549549119683227,0.0703432933816849,0.130262043718983
12.36,-1.04006180182741,0.0837199068873884,0.352131851179805,-0.462631096288821,0.0605570876322043,0.116938815577476
12.365,-1.04260617467019,0.0544168606177593,0.366957374259898,-0.369324993792067,0.0651705329307029,0.112294476262243
12.37,-1.04225348085128,0.0281514490100852,0.376943951834086,-0.273805558705761,0.0913174618103952,0.111332115232563
12.375,-1.0417486379239,-0.000688127261689812,0.390231433060555,-0.151828408759913,0.145596285147254,0.121982599285519
12.38,-1.04414068036092,-0.0279502555073083,0.393731836194964,-0.0382685567737093,0.211395213628379,0.142123508887157
12.385,-1.04847622392645,-0.0485121236418622,0.390812164436842,0.0559169327283961,0.281196075799459,0.166082157103363
12.39,-1.05662258835236,-0.0562295616427927,0.395981074036985,0.111531410923452,0.331651553172259,0.195815204710133
12.395,-1.06998249095517,-0.0552141498194975,0.373797759131133,0.18114429363168,0.374136133172512,0.229743438570445
12.4,-1.08580884726863,-0.0534369021225536,0.357210228066648,0.217635039807446,0.406307145964931,0.2588858618014
12.405,-1.09372757342515,-0.0482900742687564,0.343473685694516,0.239284014513452,0.410796307302248,0.276384783496358
12.41,-1.09280888095717,-0.0290152985758712,0.326470642273331,0.255677324448716,0.392556555759276,0.288232358706556
12.415,-1.08022770396072,-0.01058374304475,0.311308993827308,0.262080046314178,0.348390606822355,0.288977150364875
12.42,-1.06401406245716,0.00470933954368253,0.294696033847536,0.249210173105555,0.30034202827458,0.276132353672353
12.425,-1.04361896527153,0.0178744836365344,0.278154077270994,0.214961413585221,0.231005649603045,0.243011695785858
12.43,-1.02243074661817,0.029013855732774,0.261798713813368,0.179882493156655,0.172070460823869,0.211376643524504
12.435,-0.991858050352385,0.0409132750868227,0.24693824471596,0.120187758971116,0.115405141341,0.170411829810339
12.44,-0.962193180346052,0.0446689646600457,0.230546929145309,0.0510353212109154,0.0665232119101501,0.118833390698047
12.445,-0.939407736356397,0.0534249510245932,0.218037272548862,-0.0109623696299207,0.0324246186147704,0.0763797570759383
12.45,-0.911843137412392,0.0561179715162233,0.205842695258627,-0.0916890581696857,0.0114515610625879,0.0310901568251445
12.455,-0.887371266513066,0.0596504005100093,0.199967906819068,-0.156699477608745,0.0075420702510552,-0.0157759367976726
12.46,-0.869885819023986,0.0572661398684189,0.197228315558499,-0.212578108082206,0.0124681997521444,-0.0537180805235233
12.465,-0.848864846794876,0.0599937175528619,0.192966125750509,-0.277015096216437,0.0278139916522533,-0.0951432375750822
12.47,-0.835123491232601,0.0587252814849199,0.187044811197104,-0.322145385592542,0.0486326230482526,-0.132548925042214
12.475,-0.819579359627986,0.0545236814571416,0.187778392280287,-0.36981961682888,0.0752490456871319,-0.171005012268251
12.48,-0.815595809049181,0.0552708497158501,0.19016876402333,-0.410816208027855,0.101667566372539,-0.205331901503406
12.485,-0.823758349525192,0.0592146670907231,0.204153206974212,-0.450349011970324,0.133450516416179,-0.250466535007964
12.49,-0.807784007045729,0.0573945089578096,0.207767409358183,-0.47416523768644,0.153845210817791,-0.30045672455951
12.495,-0.80788797460458,0.0495974735381328,0.22653689260926,-0.501105809816838,0.190592311456947,-0.361402026431523
12.5,-0.818606956555944,0.0530748817705917,0.240609973888481,-0.492437458428839,0.19643023926142,-0.302440934318068
12.505,-0.844311600425761,0.0622127382485345,0.251901309438452,-0.481365741411121,0.152414151496464,-0.274948393790761
12.51,-0.868901552842437,0.0617474714336876,0.267585070650661,-0.474851451247527,0.142264492823758,-0.299417592617719
12.515,-0.889923658809551,0.0596762992130936,0.277147776458334,-0.485216844700572,0.159217005019334,-0.329683492630436
12.52,-0.896523738561682,0.0624466916210563,0.278670743519589,-0.486857630152698,0.19292000471144,-0.357257026120294
12.525,-0.904378621648846,0.0658823357431222,0.284901162359813,-0.479532856264526,0.228398828906382,-0.37465279969671
12.53,-0.920259085138825,0.0625531297939374,0.283042230295991,-0.451792460395057,0.263084888458252,-0.396741359678704
12.535,-0.949257652391569,0.0678548835723997,0.283748234660413,-0.409932522348119,0.262512507668957,-0.386994250511601
12.54,-0.964999653640109,0.0754884032772175,0.282960068767247,-0.363648248467695,0.247678940137187,-0.370336152917721
12.545,-0.991317049344087,0.0770113788495645,0.278357540199678,-0.304984646284193,0.204485538970381,-0.347682366703469
12.55,-1.00941645984009,0.075454593760603,0.271316902349276,-0.253987656882976,0.149634690735322,-0.333003322297763
12.555,-1.02609242708635,0.0761638111255649,0.268413824609399,-0.183355781557253,0.0657290887486478,-0.314591875249056
12.56,-1.03821806487278,0.0735713871409109,0.269563176140589,-0.130758770563049,0.00468442817528843,-0.310253779181268
12.565,-1.04303833269424,0.0633131859296672,0.260897469109333,-0.0728846111856188,-0.0443439484433878,-0.30368674704225
12.57,-1.05162234156486,0.0528242366813831,0.264676693688427,-0.00701280402541005,-0.0732967248892617,-0.308891897404172
12.575,-1.05888898872526,0.0377768351426036,0.260698324288905,0.0455090843619348,-0.0854423803003401,-0.304173875141521
12.58,-1.06846249421342,0.019828948014018,0.263582577751316,0.102149313590438,-0.0826546624302864,-0.301029849277535
12.585,-1.08513312395797,-0.00104321370106118,0.263623353383207,0.154244847000158,-0.0842958133977183,-0.312620225976816
12.59,-1.10277068645967,-0.0227078775120584,0.262832416288691,0.21218418360163,-0.108421723617398,-0.327840335750615
12.595,-1.11892054129988,-0.042833666938299,0.264997720010458,0.248332362676705,-0.139061592166389,-0.338461163920409
12.6,-1.11893550779333,-0.0616651074107322,0.273640578609226,0.289902380021423,-0.173107198673569,-0.354546783489607
12.605,-1.13000095265719,-0.0770664433501729,0.275824120695187,0.310333785224617,-0.186585296476116,-0.367240630104798
12.61,-1.14999663891373,-0.0938212869136681,0.281577543688507,0.338493280706996,-0.186312570402058,-0.382564489831335
12.615,-1.16136178229956,-0.107864290713722,0.285527250243702,0.359140747517771,-0.16042160312177,-0.394631125380649
12.62,-1.18372737639901,-0.122023222067709,0.284004636180885,0.378233332391554,-0.122056799341302,-0.413364047286895
12.625,-1.19095720415138,-0.133203283677327,0.274942287326556,0.395434493629236,-0.0804620786894901,-0.422073604261526
12.63,-1.19685571103763,-0.131946967295101,0.257656297550891,0.428703779143798,-0.0191144719715207,-0.446364419938913
12.635,-1.19609866161323,-0.133039788724387,0.235841512211807,0.439276288799937,0.0205181519339223,-0.468018217262718
12.64,-1.19380633362366,-0.135238997543702,0.210178279244712,0.439279981526747,0.0788554964231002,-0.491556803204084
12.645,-1.18333264176568,-0.143362461757552,0.191425335810342,0.428345428439039,0.119226337754326,-0.504258871589543
12.65,-1.17331603020093,-0.15464824229705,0.178314393893387,0.402508358154662,0.150986808940955,-0.498572236218652
12.655,-1.16706892555388,-0.174799013697363,0.163827805365592,0.360230675838849,0.182679740670489,-0.492312676960648
12.66,-1.17572501135763,-0.197172021745152,0.160490946516086,0.302589192002392,0.19088585240836,-0.48535465282684
12.665,-1.19006833689916,-0.222933568098254,0.163007832742905,0.241237992408939,0.184082041749384,-0.482781827449799
12.67,-1.20619797902303,-0.238086534532414,0.163115487328698,0.198283803093296,0.167682013056257,-0.481858666419636
12.675,-1.2205547726343,-0.247781323028549,0.166331999843395,0.155329512588582,0.136959843538887,-0.490507084730061
12.68,-1.23832188241235,-0.249222898191264,0.169003924759535,0.114916944488352,0.0918565858365113,-0.504737179945951
12.685,-1.25070277480714,-0.240088687075577,0.167934234680758,0.064815151137646,0.0291522564311088,-0.501987443652705
12.69,-1.24575268492604,-0.219375135710396,0.176701991925937,0.0312517293115518,-0.0388401348041004,-0.492702677607641
12.695,-1.23466138307971,-0.208734543163081,0.169628688365089,0.0163907094699862,-0.0763451980883408,-0.496112255990445
12.7,-1.20086840257694,-0.18813349433096,0.164250046637945,0.0154172175202449,-0.11297116760956,-0.502953048668575
12.705,-1.17075763558606,-0.171003329116678,0.163936774474868,0.0342923841958188,-0.132945157289947,-0.510472559817467
12.71,-1.13813745613838,-0.150870026407366,0.16080845986384,0.0688151207686956,-0.152958815626711,-0.510870024325206
12.715,-1.10356725901167,-0.12906051743372,0.156832079955445,0.106559829470756,-0.170948328424343,-0.493527597814847
12.72,-1.07564434599223,-0.118902637884369,0.159941543473535,0.145799014344266,-0.187698804433283,-0.460044537921647
12.725,-1.047598714405,-0.115852764246356,0.155610632420573,0.182823275243186,-0.200610487888253,-0.431321126233892
12.73,-1.01767424365992,-0.113262830570071,0.144219159953931,0.23502198872619,-0.204556258758155,-0.397432400098965
12.735,-0.994873864815525,-0.113181793458222,0.137860443198704,0.275362255876123,-0.196120164031222,-0.36273329091075
12.74,-0.977716376300842,-0.117756467600157,0.128795400895227,0.332925186296265,-0.18522988379303,-0.323867381074816
12.745,-0.965335492602775,-0.140023275613785,0.111645037227598,0.378638980234325,-0.166678714345684,-0.283354333654701
12.75,-0.950930865988606,-0.142195996308225,0.102003326829202,0.438664793732994,-0.16210076339152,-0.24104815555629
12.755,-0.93648491464787,-0.160467227686493,0.0849454130489606,0.501925768974855,-0.15215838377534,-0.193473594320416
12.76,-0.932653070957464,-0.175223970205741,0.0691165434595933,0.552434394532174,-0.157127384622564,-0.148189442516357
12.765,-0.924708698742452,-0.191972294952431,0.0578032915791568,0.593837307671526,-0.174173540139515,-0.0994583248358037
12.77,-0.921307489309273,-0.20989246796693,0.0471716821624404,0.625361134866657,-0.200214183113607,-0.056727552359745
12.775,-0.911421921494978,-0.229230575768883,0.0327875650683511,0.656386756912897,-0.237591031711824,-0.0171483690969541
12.78,-0.888406606622837,-0.250697767470702,0.0294329020334892,0.681070945708421,-0.26403046427809,0.00795278886116746
12.785,-0.878601272490908,-0.260979033204032,0.0255003596156846,0.69644641589071,-0.269332556082749,0.0178863963527767
12.79,-0.875267526344909,-0.2738682275861,0.0187323310692128,0.712426296343632,-0.264728500685853,0.0399275389697433
12.795,-0.849045987249595,-0.285690355476569,0.0223831345771264,0.71543929652775,-0.259414847921877,0.0612811552959565
12.8,-0.8304661940381,-0.300968248872369,0.0278819077558599,0.719482978544956,-0.228846112814869,0.0803348134960404
12.805,-0.817958127258663,-0.303563945239109,0.0303380463662406,0.714356543805155,-0.196417328392381,0.0890996705949415
12.81,-0.805544141970823,-0.309150953223958,0.0358006602448913,0.707351673903119,-0.162787164896563,0.0952824244013521
12.815,-0.800016652919921,-0.309685935444042,0.0479181105028955,0.696640354801946,-0.147240692086195,0.0963013470172882
12.82,-0.793296706468823,-0.305171634516815,0.0580924239269628,0.684102615861086,-0.137687139551965,0.0987259967985656
12.825,-0.791701447374077,-0.311176571541068,0.0613643859857276,0.667996959872203,-0.133965820074081,0.0941877508224516
12.83,-0.783581524639518,-0.310350401695672,0.0699460650545382,0.650843151162988,-0.137208328255578,0.0807470923641068
12.835,-0.789312799798823,-0.316964534455077,0.0844476891453997,0.627166277819662,-0.142485497978576,0.0658475050672587
12.84,-0.784981391609054,-0.312379233320903,0.0965661651402342,0.599274822694879,-0.145369591400497,0.0390017140454549
12.845,-0.77799450842495,-0.317201486773975,0.104183234503525,0.570579226382367,-0.134698856396077,0.00992757633694098
12.85,-0.780700048289084,-0.317992484785119,0.117818949171324,0.53096354388647,-0.118693590465497,-0.0185393424718429
12.855,-0.785190686889405,-0.316205339701632,0.139574267211368,0.466761047391838,-0.0820257791467035,-0.0594371279468455
12.86,-0.788243276740246,-0.313301192333887,0.149074129263956,0.414911360827206,-0.049279190153087,-0.0990648225209813
12.865,-0.80028804923781,-0.308498668062639,0.159894120330589,0.361436204967653,-0.00536951482481683,-0.134272348975323
12.87,-0.81120244935509,-0.305553932718194,0.164882125780135,0.302086188285256,0.0511292372761579,-0.172348447542205
12.875,-0.822850828821009,-0.310086342421445,0.181676968480601,0.225627622097134,0.119045835733164,-0.213089484248627
12.88,-0.841782063798008,-0.303517877412203,0.190777383776482,0.162226488203497,0.174988210117818,-0.244868866873245
12.885,-0.86621281117522,-0.307340701041075,0.191862269391348,0.113724184180114,0.206103271581934,-0.263978921213427
12.89,-0.885425652394038,-0.307976049796727,0.191770953445705,0.0750800581650355,0.226714570187747,-0.272138587192158
12.895,-0.900028332217389,-0.306549818287269,0.193347668306078,0.0525555898259107,0.216590058844633,-0.275249944613675
12.9,-0.911434416693359,-0.305064897141221,0.190294741395829,0.0348989203905194,0.208181231674263,-0.264461512864466
12.905,-0.921034350528543,-0.301713035075761,0.190349948341,0.0323221006901996,0.188510820173054,-0.258654698269507
12.91,-0.930803374177158,-0.293387808053767,0.189596627496827,0.0322338030828254,0.173741398650115,-0.253050018813115
12.915,-0.948731506354352,-0.284688795377894,0.185989832169358,0.0457198131269347,0.163709609242511,-0.247187903370641
12.92,-0.955113645259422,-0.289545928391778,0.188441546730873,0.0614962498564806,0.168668418132459,-0.228874600951083
12.925,-0.963323642158163,-0.290111891556875,0.190691170151198,0.0794782849641008,0.167792707681656,-0.214014349538816
12.93,-0.96726680886229,-0.288532225388499,0.19474084593603,0.0864108080210627,0.16850355990027,-0.194594478788405
12.935,-0.972853276888233,-0.283712196757975,0.192399996181037,0.0941792593345462,0.16744661775081,-0.17023216690636
12.94,-0.973741803982172,-0.279309406493505,0.194090357567448,0.108924640871864,0.160511731476376,-0.137239024126328
12.945,-0.976118654912808,-0.268996172171854,0.190742641804088,0.121081796369933,0.155635087786015,-0.112924715713693
12.95,-0.971931138243213,-0.269449263339502,0.194908527444149,0.137597092938467,0.152498887745145,-0.0827673451489756
12.955,-0.968074547543978,-0.258364175913368,0.193886052403467,0.14420326679863,0.147457243920138,-0.0663406588477188
12.96,-0.963968176326193,-0.250819895761186,0.191638523059535,0.159928076900148,0.144329822835932,-0.0453199205697691
12.965,-0.952053030606484,-0.245090814518488,0.194444945115794,0.17338393602085,0.145857303539273,-0.0265907521327727
12.97,-0.940379957810844,-0.240205270621381,0.198590341918322,0.174381017352803,0.154983388850996,-0.0148570237196669
12.975,-0.933073943306611,-0.24111462640556,0.199747413536333,0.176998049579828,0.169561637831394,-0.00411223329108036
12.98,-0.923162471760606,-0.240584091688616,0.200424564239466,0.177444322029419,0.187317303420025,0.00405858597184178
12.985,-0.911848812113167,-0.23921978519818,0.201896121666222,0.17746416699051,0.208857449250275,0.00713078975773102
12.99,-0.906479610370958,-0.242516716801389,0.199075421229566,0.182491026097794,0.231986249540767,0.0129063974695221
12.995,-0.901620526589972,-0.245721473975139,0.198374691730873,0.190290156144641,0.252927446454015,0.0184689483562145
13,-0.893775093282355,-0.252067814444427,0.198177857669048,0.207045104733059,0.266810287673158,0.0193345956504345
13.005,-0.891339321027237,-0.247988935301769,0.201611155410919,0.21274974599639,0.288075840571598,0.0240649848899707
13.01,-0.882154271076271,-0.256466923999528,0.1982950423559,0.2195904850466,0.295737259279618,0.034268254665866
13.015,-0.880238361594496,-0.25559160551443,0.202382662263438,0.23007239779488,0.311544007749915,0.0395931203357868
13.02,-0.86795840332876,-0.266981249171795,0.207652081294935,0.23241414129734,0.33358241195821,0.0579379770388387
13.025,-0.861181186359735,-0.274250185731396,0.214590950154324,0.234225584991136,0.359147969370721,0.0729543245176531
13.03,-0.859046572914213,-0.280961106274188,0.225283864635643,0.245753239603253,0.377102444069943,0.0827884831305923
13.035,-0.855180443011539,-0.286180894955363,0.231513801629412,0.252485344863801,0.40929646561175,0.100708728187921
13.04,-0.853275130021279,-0.296108137292309,0.234791381670402,0.26087754076968,0.429085863905021,0.112655247062024
13.045,-0.856328842271081,-0.295776348554435,0.237356518588202,0.262653466483341,0.448498273072892,0.124106691220202
13.05,-0.858249200518239,-0.298623767028307,0.231811825010472,0.265894687364732,0.467370514592338,0.137452054943511
13.055,-0.862819080770172,-0.299764231874131,0.231069961889624,0.267843306064606,0.480120692331012,0.143947437405586
13.06,-0.867538479495001,-0.297012503844624,0.228062118164272,0.270843981326871,0.490684496554227,0.147698286058371
13.065,-0.871087585204049,-0.296610624962618,0.223515147915055,0.27689132425633,0.494817420422573,0.150055915117264
13.07,-0.881020863230657,-0.28997786494936,0.220328069697265,0.281618894521914,0.49242651325015,0.14727556567935
13.075,-0.875921786039339,-0.2930625578213,0.216360539904958,0.28038430186699,0.49260143949295,0.142152134011593
13.08,-0.887042583016573,-0.286209147689123,0.209767457044633,0.278015534479044,0.496200734632934,0.139826718484808
13.085,-0.888387736412891,-0.279882883575182,0.208029333742302,0.285985942810644,0.490627861182813,0.129229316048066
13.09,-0.899740423850989,-0.278193612095483,0.206056967993382,0.28469003852833,0.48312035536887,0.119900973831545
13.095,-0.906837629467051,-0.279831617417413,0.198611302195599,0.284523245956886,0.473640126516916,0.109390655421186
13.1,-0.914421736979721,-0.281610673003495,0.193946625554486,0.281285143179708,0.464058837758752,0.099358381574536
13.105,-0.926655400826482,-0.28107158569633,0.192246723763782,0.276395171880722,0.448367163122674,0.090776618866893
13.11,-0.938942932239631,-0.284550721234443,0.194602490145159,0.268833371678319,0.429993783790521,0.080329132858954
13.115,-0.949870843859051,-0.282755086864503,0.186782274096286,0.266259179269242,0.410305854923703,0.0764320735300149
13.12,-0.955083902313682,-0.289062370325896,0.189260461690215,0.254971833283958,0.389573725727405,0.0667188756898541
13.125,-0.962394364610595,-0.280520506870044,0.193526847412152,0.247803024472074,0.36048422827395,0.0643467558788404
13.13,-0.967068409882746,-0.275165556106753,0.195731719741663,0.237063931632406,0.336120990337789,0.0631072171945175
13.135,-0.969790132743984,-0.273666348495056,0.198334920399762,0.229031190711162,0.319458061921252,0.0624965784589876
13.14,-0.970731994043535,-0.262348512516574,0.211609838512847,0.216976866526917,0.287297074441473,0.0677023789022981
13.145,-0.973394003840774,-0.258673094880503,0.214930842393503,0.199992240354454,0.270790910454203,0.0766602908375023
13.15,-0.984719521718015,-0.249024495024571,0.224877435527391,0.185600120588874,0.251478024803283,0.0910264867537937
13.155,-0.990678666748873,-0.23210451075096,0.234871016820914,0.168516135587005,0.230506904283909,0.107592362402502
13.16,-0.994447251555801,-0.223786334949999,0.246063694745387,0.153658437135308,0.208649620297538,0.126970311477788
13.165,-0.997322165326104,-0.213762756434854,0.251710697182974,0.13406047388785,0.176845976024841,0.148970464927531
13.17,-0.99954408546323,-0.200803893132109,0.255033751214759,0.115462266530379,0.145010753579608,0.177493302770884
13.175,-1.00486810520462,-0.192736424807519,0.257365169005806,0.0983631806943851,0.119753180777551,0.202332022493726
13.18,-1.00960521162582,-0.181659396256867,0.258462120104944,0.0803730978412482,0.0880575306436687,0.229459154840708
13.185,-1.00543540198809,-0.175331798214997,0.256762094951081,0.0579440844256432,0.0543748509666017,0.256886846320331
13.19,-1.0081553367244,-0.173108576550722,0.260014002349519,0.0419773708618453,0.0229057301818247,0.27705478678841
13.195,-1.00314673945099,-0.168209402151093,0.252897468162918,0.01624757684153,-0.0101894718224121,0.316272411501428
13.2,-1.00032445084008,-0.165379958906714,0.250136205948752,-0.0070278172765384,-0.020205156583062,0.342255626578091
13.205,-0.994371067279745,-0.165242167797369,0.246168744256013,-0.0259096911259169,-0.0384584913706214,0.370967438939663
13.21,-0.99017392822238,-0.162634258339002,0.242964908953541,-0.0417848518142213,-0.050023906181564,0.40087907288434
13.215,-0.994529823779321,-0.163947772997518,0.236099346052626,-0.0558770100266408,-0.0595700203257208,0.426257674055326
13.22,-0.986479971093251,-0.162016313653197,0.242224864113247,-0.066830742282005,-0.077644924996716,0.46135085593903
13.225,-0.982619332185282,-0.162856731229572,0.242418737692112,-0.0755874484620048,-0.0945920035216639,0.482009924748254
13.23,-0.977629172797003,-0.166746236457145,0.242608116480332,-0.0803008192360238,-0.117666736405835,0.503028546683751
13.235,-0.966179721494361,-0.160011342028059,0.248331942849421,-0.0909812549054731,-0.142577968582134,0.527246072848398
13.24,-0.958221787457,-0.160100913931732,0.255825731359927,-0.10219687517747,-0.164702558875623,0.551032729823608
13.245,-0.953768610182359,-0.156174936201832,0.261588222435241,-0.109112385690985,-0.195553883643179,0.5705285389383
13.25,-0.945036736951893,-0.149244187546219,0.268424321974025,-0.110882014036179,-0.220261949679901,0.58245645967833
13.255,-0.939428738354702,-0.151254374252236,0.276637443292036,-0.114500609233376,-0.245812239181545,0.595247354415969
13.26,-0.93835837628166,-0.152928488308628,0.287198899038634,-0.109607572361743,-0.270953861468229,0.602525272085446
13.265,-0.94110268554196,-0.165501786203282,0.288151141609872,-0.105024520625221,-0.302911515912103,0.611270829175706
13.27,-0.938612668226724,-0.167748810793562,0.29873226703937,-0.100075355922625,-0.340239414329594,0.616554612321007
13.275,-0.940778464487253,-0.166302126619177,0.317984237955312,-0.0928327985081037,-0.393304927138474,0.626378658884921
13.28,-0.951078276465678,-0.167795636744765,0.348264417324858,-0.0973105275493249,-0.468793075146688,0.624206225793248
13.285,-0.967199762699158,-0.167575758526623,0.381754722242411,-0.0971672277114928,-0.553278979882971,0.625295042991638
13.29,-0.990424655573972,-0.163352191845499,0.414315828240375,-0.107316551080825,-0.645347210375299,0.629175116281003
13.295,-1.03588153905498,-0.160504671279992,0.453997754420498,-0.130851164054286,-0.768576540119066,0.637975450083468
13.3,-1.09412381756458,-0.174544730572627,0.47563687986087,-0.162107600781572,-0.884822811628367,0.638733685016632
13.305,-1.16390084303203,-0.194904308069622,0.470133276092209,-0.212836776261255,-0.948452592241403,0.636253390979731
13.31,-1.22203427171099,-0.226375831988091,0.437648228971774,-0.27301466292449,-0.950612860572672,0.620226336609507
13.315,-1.28456661008767,-0.273893343219484,0.358315704599459,-0.361893405255758,-0.860997920028345,0.580620671997654
13.32,-1.32158852664851,-0.310060123735976,0.281962781912159,-0.438091244417796,-0.750917556738687,0.543993240012985
13.325,-1.35483971969008,-0.343338160430886,0.186676058289632,-0.536441654275295,-0.61170157114702,0.487625959259678
13.33,-1.3730722989007,-0.345569476522437,0.111969347408241,-0.64660403374109,-0.5000781301087,0.428986352057904
13.335,-1.38775207744948,-0.305054339464809,0.0645795889164426,-0.728358097731984,-0.427317895855776,0.368109107657782
13.34,-1.3977310551012,-0.239153768033274,0.0370504244184565,-0.769323593047785,-0.376746559350669,0.305708104456949
13.345,-1.41996858707899,-0.137927427835102,0.0362773948778762,-0.748393508943708,-0.356458735639691,0.232058374608845
13.35,-1.44825308958605,-0.0410132230984345,0.0488663422162661,-0.673312465504437,-0.337636231856904,0.15618076075194
13.355,-1.4506654794716,0.0150350641488296,0.0546514767022414,-0.575605303761636,-0.314710714236958,0.101056324895775
13.36,-1.43491612078079,0.0380458263931561,0.0555354698793842,-0.440368861583763,-0.28216478340698,0.0639780337536749
13.365,-1.41249986144663,0.0478570831947005,0.047913917618416,-0.346659283713793,-0.267434599449456,0.0521666874436788
13.37,-1.37314124501488,0.034775089604082,0.0282871004038025,-0.24302071317473,-0.273218652111396,0.0503032444715914
13.375,-1.31692160248258,0.0201391429371477,0.0222701430009,-0.175438125513268,-0.309340371913111,0.0631206335019736
13.38,-1.2568590436769,0.0095061902901451,0.0113019986534828,-0.141928509280657,-0.3687443309474,0.0857326701617746
13.385,-1.20425761045382,0.0119694925247736,0.00878291911015153,-0.162177716719475,-0.416350184071447,0.0997780444364997
13.39,-1.15544077900084,0.0137209442650514,0.0126373165061048,-0.218212373425388,-0.455715129284442,0.104246224674436
13.395,-1.11114306152984,0.0203315626131716,0.0329959835188809,-0.287976922973781,-0.493415974938026,0.0820605943452964
13.4,-1.05945383666564,0.0386389640668097,0.0662909100292652,-0.351118061131695,-0.515594742933926,0.0512010230162376
13.405,-0.984897597547407,0.0692607309870789,0.103757015176412,-0.413078602858619,-0.533899144164961,0.0207527745115777
13.41,-0.94545241365742,0.0873303398692158,0.144278626220794,-0.448049909003517,-0.546785866943056,-0.00902729532944777
13.415,-0.885519907284351,0.112782299142191,0.18686331486627,-0.4913811643591,-0.539970141399493,-0.0171349427173835
13.42,-0.842236021762455,0.131826027287922,0.220637526839256,-0.533644783145213,-0.507823068658103,-0.0101739947940809
13.425,-0.79412763062029,0.14927515159478,0.246484752580432,-0.573676000756081,-0.453504021520847,0.0128890551591617
13.43,-0.758124766949022,0.154906724586119,0.266517762325163,-0.609736636925554,-0.374632713083311,0.0541254844523605
13.435,-0.724383060631416,0.152584706655996,0.273526632790405,-0.622064468592072,-0.278786960675042,0.129526889463542
13.44,-0.701658903082808,0.15328635887653,0.276518234256967,-0.624586083982134,-0.181488201542539,0.208981276165788
13.445,-0.685870219014364,0.15160782219916,0.274373197719014,-0.627989382311262,-0.104803595825495,0.26962353218791
13.45,-0.675814048048947,0.148558253619972,0.264438481378396,-0.63303413430038,-0.0487622296463286,0.334460679514661
13.455,-0.675344617329244,0.140944497962072,0.244599051443255,-0.64062181443437,-0.00112138021689697,0.410111966902728
13.46,-0.691036590265826,0.14304005854191,0.223518219392179,-0.633179219582608,0.0211620496260664,0.473089360750072
13.465,-0.72371538303536,0.146108670501053,0.206297373307637,-0.625971054080052,0.0375374764969163,0.518929964636248
13.47,-0.745259110641217,0.148721678633755,0.199237117959582,-0.611945907481201,0.0522643351910419,0.552175147849169
13.475,-0.776099987132409,0.157935092998287,0.176468630936365,-0.594605488052008,0.077276830761033,0.572185137634458
13.48,-0.794223750598074,0.150698670088122,0.159535995838053,-0.575134412529267,0.0881359764985005,0.580579916100951
13.485,-0.809054067610522,0.137926678743938,0.148385289818416,-0.553122031001361,0.0916979647464777,0.578689100279173
13.49,-0.814663935380929,0.122414655178675,0.139155280549063,-0.527273613105443,0.093338097339277,0.562063144214597
13.495,-0.817734465634097,0.101022743727063,0.1362032767547,-0.51122736640193,0.104163162963885,0.542136062525326
13.5,-0.822580003927688,0.0829270460950524,0.13514014156852,-0.501528966315103,0.114814859959925,0.523303818834399
13.505,-0.830633772073391,0.0623408251097576,0.136604184500307,-0.502591868481099,0.132774442202398,0.513018108629302
13.51,-0.842761646344561,0.0423049364015635,0.140510290609711,-0.515080655307674,0.150366338080972,0.519246571748848
13.515,-0.852970206122376,0.028135343618299,0.145079497929168,-0.531868823451415,0.15779308251806,0.531620763774059
13.52,-0.869041643069799,0.00819978525526141,0.164906797540922,-0.528133600977486,0.167660642816441,0.549371692549314
13.525,-0.877342151765856,-0.00554054454154223,0.183585960319601,-0.529227960107706,0.172405645419612,0.570361352737406
13.53,-0.892978639690615,-0.0238697748342739,0.189944753384202,-0.520322563144921,0.172855039699783,0.590042376049554
13.535,-0.916032626230429,-0.0377726326439282,0.198017834277496,-0.503706391608514,0.187574522660804,0.606749493495005
13.54,-0.944327710646072,-0.0449958077238882,0.202848439523836,-0.489454682905818,0.216965712628077,0.606447262018683
13.545,-0.977677017969886,-0.0504817862006913,0.204556165423325,-0.466866974052862,0.267777750137491,0.591914034601468
13.55,-1.00431530666352,-0.0586752955841979,0.199625855279249,-0.438950854512643,0.333303225097709,0.558004008646648
13.555,-1.03306357586324,-0.0648914822726169,0.189859461181568,-0.406600206409974,0.40389128389498,0.51009885460692
13.56,-1.04447256051181,-0.0689962117064514,0.182486321286037,-0.393079098290389,0.454615563565732,0.450311808732944
13.565,-1.05257140709021,-0.0578377870775299,0.164906120534091,-0.372605546593722,0.485152379393522,0.39193257417606
13.57,-1.05749792874619,-0.0453159760123098,0.159954816646176,-0.367717630284081,0.501940096991583,0.320934951720499
13.575,-1.05234202986572,-0.0287295454438204,0.159184489163079,-0.368589787874766,0.506062569036772,0.244577544948651
13.58,-1.03215591288333,-0.0052768928476469,0.161823348946095,-0.363755599593269,0.498648996623685,0.173769478642524
13.585,-1.02126215401033,0.01573241941578,0.164634260807578,-0.362951893872241,0.482188249377901,0.116364522325418
13.59,-1.00320270805339,0.0440902345737656,0.175019452942171,-0.367388061079397,0.472729983846627,0.0453444187814902
13.595,-0.990195800256952,0.0662402050362711,0.188814880522616,-0.373744950542242,0.461241125067858,-0.0153263427888803
13.6,-0.974207035425152,0.0829548309171477,0.201442899183664,-0.382780026379846,0.445742516914019,-0.0624477192319467
13.605,-0.950845949924623,0.0935218652601443,0.209293411927895,-0.400016307022881,0.42353417615238,-0.105996780674092
13.61,-0.927987401726701,0.0990560614542087,0.221531858395232,-0.421569029135934,0.390954364978886,-0.1305272183599
13.615,-0.899758019091688,0.102277829495368,0.225030247911759,-0.454621454139024,0.354299816011608,-0.151235609978294
13.62,-0.864991261329405,0.106744001276484,0.236000014639508,-0.487275318462991,0.336839604273709,-0.161045456873912
13.625,-0.833563679160773,0.105764890657549,0.241475738458378,-0.518909835708177,0.330385870068589,-0.17302841718451
13.63,-0.807314061059041,0.105496790358136,0.24163960111551,-0.54824552918063,0.339235503558292,-0.171656851132161
13.635,-0.781623765502533,0.107069944664312,0.236031857828831,-0.580592420292344,0.366693538235345,-0.171889778880927
13.64,-0.768323318181297,0.104780132371498,0.231266102187293,-0.607282691635995,0.396462911927909,-0.178955635615677
13.645,-0.753950868410978,0.0985915855190528,0.224607864538934,-0.633722902107035,0.421860805862465,-0.182129492341859
13.65,-0.743083888209553,0.0959164884600992,0.218054278321308,-0.654315333054327,0.444341528052327,-0.178190902739331
13.655,-0.746748345549528,0.0955455408793242,0.212056957307094,-0.678138616725342,0.470935160634499,-0.171820046525021
13.66,-0.750381083088622,0.0973913861204725,0.203419349898329,-0.686421160233974,0.49354997537658,-0.161366868439726
13.665,-0.765691825351188,0.0989527201938684,0.198839994412774,-0.687976543060681,0.509795967230755,-0.129109417245964
13.67,-0.783112304208844,0.0971628517669615,0.195879380912371,-0.679675246353391,0.514455086079007,-0.0831776626301094
13.675,-0.807067321143595,0.100152823134857,0.193104473169054,-0.659621081716056,0.500782582762038,-0.0441201017504859
13.68,-0.8160449626292,0.0989014220240724,0.187100776168082,-0.639546617882453,0.476945538288219,-0.0350141864866436
13.685,-0.830384723771806,0.101396597895987,0.193298036541934,-0.60515314231299,0.461485147474447,-0.0297098186709199
13.69,-0.86327386711935,0.112044713968081,0.207730393722743,-0.50956032722111,0.402607066001313,0.126213460738744
13.695,-0.90703828741101,0.11613110719516,0.210275384058924,-0.439994782028561,0.309241482340706,0.197403172613593
13.7,-0.928918469328107,0.109822005853368,0.211085610209165,-0.385412245520844,0.241496151300708,0.173465809892191
13.705,-0.952837420489686,0.105562045029549,0.213554957766375,-0.369390906669411,0.213610381693427,0.169112684108529
13.71,-0.971198650918965,0.0906384096457924,0.229279654135559,-0.356120305579559,0.191703698110521,0.120588817023745
13.715,-0.977756804176593,0.0743238001071284,0.247312332926302,-0.316683487165328,0.170344813855159,0.0711753873977827
13.72,-0.99521415202619,0.0626652610813146,0.261764783534573,-0.263248681234884,0.139999247849624,0.052054785868099
13.725,-1.01740672694513,0.048646002083098,0.274963811999838,-0.214542956428064,0.119303150873229,0.0667315356131196
13.73,-1.03095375873925,0.0287945029833812,0.275736253667498,-0.183480790371911,0.127624774869981,0.0879159640553509
13.735,-1.07173969300893,0.0184371265901416,0.283599690959238,-0.126072373142594,0.133888374200758,0.0945822744253443
13.74,-1.09462867254164,-0.0045587828932661,0.29444982703866,-0.0405303867613881,0.110186856773418,0.0633603414892901
13.745,-1.11896151489177,-0.0254450935031843,0.295433621244544,0.0126056609695956,0.101550367009975,0.034542387763996
13.75,-1.12968986258104,-0.0432122445152552,0.299259863737451,0.0630715700911692,0.107262935479315,-0.01532344623273
13.755,-1.13605629143278,-0.0561684722852219,0.298466333595628,0.0979291477094165,0.127887041196807,-0.0681253399560714
13.76,-1.13420295463972,-0.0653819664373815,0.293527409608272,0.124475890442801,0.157653331018678,-0.124982430740166
13.765,-1.12695878953575,-0.0799656832177973,0.286582481622051,0.151364699571139,0.208897983619618,-0.189141186338352
13.77,-1.12237386053323,-0.0865879560025023,0.28365026010246,0.168123070964667,0.251410965452512,-0.229600916257979
13.775,-1.12488438333605,-0.0911711406196777,0.279434263531759,0.175981363963263,0.28452398900056,-0.248240288403763
13.78,-1.11882830062716,-0.0897022332097279,0.278247638812484,0.189250727363414,0.301502481289348,-0.252865995819561
13.785,-1.11343961998357,-0.0824164588072542,0.276098441174437,0.208095441595378,0.281404653332552,-0.24410486753217
13.79,-1.09771468681246,-0.0704746904005377,0.27114367881581,0.230190039331905,0.222949921685616,-0.24313830194973
13.795,-1.07754809519297,-0.0623207768077028,0.261355490118882,0.230350850011518,0.177955432139016,-0.247709730838466
13.8,-1.04988694984853,-0.0449306913231425,0.272596935816369,0.238405421070645,0.120235549502281,-0.269844649246287
13.805,-1.03621278089905,-0.0278884085918653,0.270467388551036,0.234938364637977,0.0845652292635486,-0.297074898217978
13.81,-1.01431930445235,-0.0143564499363665,0.278789530251308,0.230359634704374,0.0591647997386223,-0.321337504022495
13.815,-1.00341658574229,-0.0018234770172784,0.283880968149242,0.208085206011603,0.0346195944399364,-0.353630736818737
13.82,-0.976797902182863,0.0102648559564336,0.291599606947554,0.19864138869798,0.00911660551601397,-0.399045371671607
13.825,-0.971359465937067,0.0237201443203442,0.300487805844959,0.168891754114915,-0.0325584709883068,-0.459560433785981
13.83,-0.919201290167012,0.0126356933922354,0.314307320936589,0.160481505920383,-0.0646087860522228,-0.498221888908875
13.835,-0.909375871987466,0.0159772123513217,0.322245970585588,0.15136959174832,-0.0935377498047212,-0.558731760766895
13.84,-0.910203956003646,0.0195840314054039,0.334998043260848,0.131532472741468,-0.110342408290616,-0.605230830970986
13.845,-0.916734438992426,0.0177024701309379,0.350388949012937,0.0982245176529244,-0.123466645532952,-0.655620929534451
13.85,-0.945181544321116,0.0168593961435837,0.367060079298928,0.0718441711829505,-0.142741633816613,-0.742900801155623
13.855,-0.989508662112241,0.0140754267701354,0.358355928106211,0.0382931323943193,-0.166860610818278,-0.735779600481322
13.86,-1.00580402679718,0.00337453864073648,0.35903877556763,0.0382048052204367,-0.198835867370237,-0.71013726564752
13.865,-1.03712671197418,-0.00712517283521964,0.359296924454782,0.0528250522911549,-0.246868187255829,-0.756273432360699
13.87,-1.07730499935916,-0.0265729302255094,0.351610037148263,0.0657085201008326,-0.29035370856463,-0.756606111429614
13.875,-1.12443912564426,-0.0351092920338879,0.330810530201565,0.10716258165006,-0.354650493149026,-0.728524942152869
13.88,-1.19369032549606,-0.0371723256477531,0.301510596297159,0.15430267191849,-0.392965048551559,-0.722029155252077
13.885,-1.26294967137657,-0.0359837045827956,0.259889487615633,0.204285056808613,-0.374666207916203,-0.716136149097045
13.89,-1.33322353537775,-0.0227145462741278,0.197376866967733,0.272963294832264,-0.32316700442456,-0.67343832560551
13.895,-1.39115257496769,-0.00500618018120989,0.118974413867777,0.362191026857688,-0.242792594942757,-0.590760154006692
13.9,-1.40507510946609,0.00686400434295454,0.0509463131924667,0.447989911399138,-0.160227718898467,-0.502411243997829
13.905,-1.39393829429551,0.000522706631964691,-0.00314057952321941,0.535692936259943,-0.115976100724252,-0.405634050804247
13.91,-1.34814260004727,-0.0404868269458249,-0.0325053261239507,0.602031887431822,-0.152081033309064,-0.271861593039209
13.915,-1.29311506538828,-0.0919158967960841,-0.0355960474457488,0.64405619444086,-0.19938015703607,-0.15770121033741
13.92,-1.24798710872736,-0.150524109263153,-0.0231652182611228,0.657628071147726,-0.219484448432922,-0.0441097617194196
13.925,-1.21711831770824,-0.211714487288147,0.0016951183315744,0.662898308544451,-0.212256720147488,0.0576415242673449
13.93,-1.19922824643608,-0.249849650410367,0.0141722101135302,0.661976719614048,-0.185387861825387,0.127843668863455
13.935,-1.18413749962497,-0.277265564510918,0.0193609691415194,0.648108806423036,-0.133434156425437,0.191593976090907
13.94,-1.17440120482125,-0.294637859912601,0.0206750762048796,0.621121716603634,-0.0716959746834667,0.232081604902208
13.945,-1.16140304129026,-0.295556627773402,0.0159958315555177,0.595808082744914,-0.0137248963320715,0.251496649253025
13.95,-1.14329233020464,-0.298131265376053,0.0199168140987157,0.564515512041411,0.0349272700366957,0.259566288878125
13.955,-1.11262212586807,-0.279860542717957,0.0167547772903664,0.531673535903531,0.101990424365301,0.246396648503101
13.96,-1.08312169996349,-0.272129137194355,0.027208284300512,0.508956436555494,0.148588564948974,0.225129375117591
13.965,-1.04188965699424,-0.264648795191276,0.0340929258880012,0.490191036932317,0.194675288962265,0.198917012987887
13.97,-0.995648390914473,-0.262158986774284,0.0596015635794778,0.486727499804773,0.224576775001623,0.159477189033676
13.975,-0.962969610054756,-0.255878292848331,0.0806320492846271,0.488056879538446,0.231295600612661,0.132271923304038
13.98,-0.920042157046033,-0.252848634366025,0.106956938104658,0.494633811835347,0.212663046177815,0.103034137058814
13.985,-0.886698353124952,-0.250142772337991,0.125243625017697,0.510108459634694,0.177041305481142,0.0701743810966562
13.99,-0.863964713760705,-0.245906708629238,0.137804655284812,0.516542363900157,0.138219810745468,0.0293825174885024
13.995,-0.841203657737694,-0.24046651481081,0.148338397008651,0.51080095872776,0.0819694772832169,-0.00679956885672736
14,-0.810184514171565,-0.236317394421489,0.156268977765578,0.490791493101493,0.0244075522875653,-0.0491024130324745
14.005,-0.798602923945692,-0.232668346407702,0.164897029973773,0.468564074584538,-0.00202494183581542,-0.0863451740795079
14.01,-0.792168811788968,-0.230597450370775,0.170166231610879,0.425408679343981,-0.0269160647005227,-0.123345643309103
14.015,-0.789065329290333,-0.229744175036322,0.179316487604674,0.393975022814671,-0.0405474643561858,-0.140653733556842
14.02,-0.799177652709628,-0.205486848695715,0.181950195335801,0.354661299363816,-0.0593153519617959,-0.15965424827111
14.025,-0.800646365853915,-0.18638084680055,0.182883502207337,0.321201823194858,-0.0763810571573089,-0.176327977488289
14.03,-0.811421245642569,-0.182118632535623,0.184731352229917,0.286014120197427,-0.0937529741151912,-0.187584821834422
14.035,-0.816983068774459,-0.17377218868465,0.188084157112713,0.249294892029962,-0.111928709730961,-0.197764178626427
14.04,-0.83308521016004,-0.171447640998223,0.185290668473063,0.200067330650308,-0.126643402212004,-0.217130098417424
14.045,-0.849436117509904,-0.159297860542664,0.177612111013191,0.159287913281714,-0.124948669198213,-0.235068359232727
14.05,-0.867564255618174,-0.151986221357222,0.176514416753698,0.119420863854908,-0.117289875592521,-0.252444274136508
14.055,-0.873340309724812,-0.146180158772428,0.170944707733282,0.0873242583822396,-0.0998393090512934,-0.26742856736884
14.06,-0.89402967252729,-0.142129293545342,0.169126060013736,0.0651298347299744,-0.0709302697470315,-0.279438422864693
14.065,-0.905619607327334,-0.131029888804605,0.167340470871546,0.0377696704980184,-0.0139859444158437,-0.288778352287499
14.07,-0.930232482652747,-0.123151630284038,0.160939771444792,0.00855421675256451,0.0485497168347433,-0.300640293290596
14.075,-0.9479247861269,-0.123403433858442,0.156436938427561,-0.0110691453487197,0.0772210083055918,-0.299903177145076
14.08,-0.968630971649433,-0.124551367412763,0.15584372832515,-0.0132291138580273,0.0977060417231614,-0.278823146054545
14.085,-0.981972515850738,-0.126530831977629,0.155995367581659,0.00211275143920302,0.104264602065086,-0.251980610958423
14.09,-0.997068796256358,-0.130520937319169,0.157811604799631,0.0350916486779607,0.0990150847658148,-0.204486479684966
14.095,-0.99674778116223,-0.135814881208031,0.166297321392217,0.0602208550768578,0.0988978996324959,-0.164050161060741
14.1,-0.999638243577442,-0.154151845871775,0.172982688884602,0.087437299595884,0.0937547260807672,-0.125197160658879
14.105,-0.998271660490602,-0.173452818874312,0.178867607505628,0.122088065446863,0.0609600717536144,-0.0880533660837218
14.11,-0.988257996504319,-0.186263472966866,0.192225139819712,0.140443320470653,0.0267329709529,-0.0622467212637316
14.115,-0.982574083907898,-0.206693946212861,0.201880512195676,0.178387351767194,-0.019408867432739,-0.0295987210766588
14.12,-0.969361186097757,-0.223637975592253,0.212265893387061,0.204161086983828,-0.0546889897256508,-0.00184510036902191
14.125,-0.964721682863729,-0.237971497877313,0.224663363514487,0.214034499633354,-0.0699056468804481,0.0257581919773483
14.13,-0.961010128374329,-0.250029547628218,0.232477763052308,0.222031839073938,-0.070742096810916,0.0447900455695214
14.135,-0.94955940863885,-0.264061413836662,0.236128272623756,0.218610026222069,-0.0599675004466696,0.0674491409769337
14.14,-0.936595817271561,-0.274105884505496,0.228379152893661,0.208099874276428,-0.0517289150621174,0.0846835052175
14.145,-0.93108148406142,-0.274606904274184,0.235010903629338,0.187172392611072,-0.0323925481987246,0.102849607709086
14.15,-0.925280585777187,-0.269242392277772,0.232163344408012,0.163994213612362,-0.00934239319809337,0.112192459688954
14.155,-0.91163139772974,-0.264248061237369,0.236040051206533,0.150618714335595,0.0196271432317005,0.13666729470163
14.16,-0.902187364813979,-0.265697296347207,0.236867477796184,0.142000431612765,0.0462715708389323,0.155574347647069
14.165,-0.891495510450857,-0.260604703785925,0.239507561136535,0.137395291855242,0.0741074371917858,0.170406464753708
14.17,-0.883619816116754,-0.254394356152772,0.240497672170591,0.130808445669847,0.101665569314634,0.190125998297733
14.175,-0.875577327616363,-0.245987949625626,0.23979466194114,0.124240918894116,0.122778143163052,0.207237554551665
14.18,-0.866677462213101,-0.238682580595562,0.240462661947836,0.114226478730863,0.146115238853467,0.216657135990693
14.185,-0.856886415928056,-0.233915357590986,0.237547442662655,0.0953732263678973,0.156174050271527,0.222422447466465
14.19,-0.845493288516999,-0.233018705233371,0.240520998348662,0.0846366488936316,0.167909193834521,0.217296635508813
14.195,-0.83937978487034,-0.231515310463847,0.23985515920083,0.0703256636737984,0.181104231765009,0.211680160407171
14.2,-0.827613776972274,-0.21875813946379,0.239955904362881,0.0562107170493985,0.200958114404581,0.196041193101598
14.205,-0.823884607781903,-0.211430868966993,0.235794818482983,0.0388219397747943,0.212338201305824,0.168312785780977
14.21,-0.80930436682476,-0.203785893517652,0.239293449540118,0.0290416588289614,0.223399120159988,0.144421105196585
14.215,-0.804195671534443,-0.196703263685082,0.239907799779995,0.0188201385272272,0.238159926710476,0.113945152219455
14.22,-0.80074579522199,-0.190175360256697,0.241383259092266,0.00469520965319399,0.249679053751639,0.0761392906609284
14.225,-0.79532414817051,-0.186139080569644,0.241393494024808,-0.00346847836291524,0.255898102291758,0.0405604107452835
14.23,-0.789800810919334,-0.183968798722399,0.244322384327636,-0.0122671231544581,0.26345158851248,0.00242545681698104
14.235,-0.785344084368961,-0.180773028703814,0.245006221174423,-0.0225311079929191,0.266519895128505,-0.0313413268345509
14.24,-0.789705522592268,-0.175516396905176,0.244423528303656,-0.0307760358146312,0.272278582461566,-0.0611892454883925
14.245,-0.79936871175359,-0.171820802320223,0.251138505162188,-0.0268573975144909,0.264783118196906,-0.0798912713357185
14.25,-0.812743229557068,-0.174115779518553,0.252654470312581,-0.030250171199441,0.260304797855826,-0.0877385083401107
14.255,-0.826663922685677,-0.179383910289992,0.257942824912166,-0.0294846656578248,0.257167800793074,-0.0964615815327168
14.26,-0.843948994017836,-0.174119498655802,0.259575663068984,-0.0238650006623808,0.257448914874351,-0.099865038770346
14.265,-0.856242947460433,-0.178521458724765,0.265911737584648,-0.015784739257352,0.253248173595302,-0.090812814258917
14.27,-0.878078334974787,-0.189119796239782,0.26861909017472,-0.0107644283720992,0.250073931041088,-0.0823710085281704
14.275,-0.89352734130749,-0.193455856566312,0.272951797216512,-0.0093445251280912,0.248966971883296,-0.0722228428643247
14.28,-0.913028772643192,-0.196840114647697,0.275127251564796,-0.00391927509983402,0.240517339865862,-0.0554159636658645
14.285,-0.930897052539157,-0.203227727537504,0.278985068622837,-0.00296795755377174,0.237017483063256,-0.0374193365447142
14.29,-0.94928871549054,-0.211140686897497,0.281190607869485,-0.00219220491828813,0.238568980046465,-0.0132410924791312
14.295,-0.965829324284774,-0.212112809764723,0.277340198413209,0.00265315601145529,0.231042432516479,0.0106178854973037
14.3,-0.980878574128191,-0.211196183609991,0.276531757457238,0.00917053527718018,0.21889852801534,0.0316357798903818
14.305,-0.983476220314448,-0.215348225713002,0.278540056692236,0.0227980745173762,0.203928170617693,0.057208825009003
14.31,-0.994519673641836,-0.215827418017639,0.276845296224997,0.0250808159252357,0.192667889268775,0.079040132073213
14.315,-0.987968865388701,-0.212452828900089,0.269929822361905,0.0310041202509559,0.179161822387481,0.099353579391488
14.32,-0.994210617856849,-0.206416294870965,0.276220067524649,0.0339830890432291,0.170689794491022,0.124072378254069
14.325,-0.992952846073142,-0.207587741173637,0.279855397227075,0.0412170536072948,0.158480629271608,0.148062553124262
14.33,-0.989188794947546,-0.19851259961568,0.27912401127191,0.0436498478758202,0.150015652607545,0.167907964485962
14.335,-0.985039674001302,-0.189789773445322,0.279121324396285,0.0421773219638814,0.144401377184721,0.180609046859511
14.34,-0.985118009164892,-0.183824170267842,0.283777303780015,0.0418298058211803,0.135493050209305,0.198773214833695
14.345,-0.983631245512159,-0.176149014840661,0.279686814043222,0.0340215361119973,0.135816206478496,0.210397036522461
14.35,-0.982010981132965,-0.161870298841367,0.283569320317014,0.0284054232968015,0.128719887261558,0.222103802651825
14.355,-0.975901113071916,-0.158846616213862,0.278865382979639,0.0253208990537499,0.110104417814329,0.228244349360466
14.36,-0.977747293415325,-0.150208728936255,0.283434323544678,0.0170073278660371,0.105153635488604,0.228373879707154
14.365,-0.973004744854562,-0.138627178403608,0.281302368204922,0.0130401396709143,0.0869826130489904,0.230386968260678
14.37,-0.966723785444859,-0.134459508385262,0.283665652475003,0.00811684654863902,0.0580244124618449,0.233053561063026
14.375,-0.964268555084224,-0.130824295793501,0.283815605524567,-0.00158573157257095,0.0283540821945011,0.229033917209268
14.38,-0.960595842901059,-0.127936336357917,0.28519577712771,-0.013918190939216,0.00230643496312195,0.228244349360466
14.385,-0.952517574059988,-0.128446399461694,0.291111227877234,-0.0311450122619221,-0.0237866994902862,0.231382115398139
14.39,-0.942641151607776,-0.127465731009192,0.298946717817021,-0.0559963382108095,-0.0436628744469228,0.242116464029383
14.395,-0.940138588852486,-0.129609342285708,0.298664992716211,-0.0835945291209023,-0.0529665916903886,0.254224541499271
14.4,-0.922151641698046,-0.133681950619175,0.302918463807678,-0.105789649757912,-0.0534995511605136,0.266904679470704
14.405,-0.916234012713156,-0.137877046900732,0.31196501211902,-0.128953276068104,-0.0499148819197991,0.276538216784636
14.41,-0.907773339712634,-0.139749170182126,0.309893179768035,-0.163648093407458,-0.0442971597452821,0.30226420945332
14.415,-0.904471621519763,-0.143091317182236,0.30949082174098,-0.181781987047855,-0.0402033779717153,0.326648105532592
14.42,-0.901471699878855,-0.144469083966824,0.313030715173458,-0.197373075469797,-0.0416032662910548,0.352583409395358
14.425,-0.894442270824998,-0.148502323623451,0.315286094020483,-0.203482405216267,-0.0383629772893915,0.370685831179261
14.43,-0.895392336544227,-0.149708214156113,0.314722138878775,-0.204049069397325,-0.0358452750462605,0.387716508087196
14.435,-0.897880159281668,-0.150022548240698,0.311650997555846,-0.198069092909042,-0.0284602445753435,0.407491468539089
14.44,-0.899442207996768,-0.150653330510763,0.309300763485496,-0.187174588253614,-0.0367878761667972,0.413941919803619
14.445,-0.905378114313044,-0.148909843156347,0.304419422367103,-0.165625808436521,-0.043528002414132,0.414239237904879
14.45,-0.907335757589007,-0.14555171986249,0.297579097647383,-0.140571639352603,-0.055300914639638,0.412877842746082
14.455,-0.914043186260228,-0.142003260634293,0.300050508971148,-0.115706910251408,-0.0696615624354363,0.400075431347138
14.46,-0.921009029206681,-0.135845928063106,0.306567013484067,-0.0899887043916904,-0.0950121243922657,0.391332564545659
14.465,-0.926880432535871,-0.127684632220605,0.322555987493928,-0.0748835119046724,-0.136127098144344,0.381641693351561
14.47,-0.942466352433959,-0.119711182360537,0.342941406408442,-0.0681518307638352,-0.178266562560271,0.37461500615846
14.475,-0.964858087222358,-0.110852696265564,0.371243320100721,-0.0728706921523298,-0.23395761264727,0.374524932725052
14.48,-1.00016665245423,-0.107108646888715,0.395663214030135,-0.0803445413812102,-0.29478682135281,0.377782694980114
14.485,-1.04324453134042,-0.109345644384182,0.40555642199564,-0.0846773119299473,-0.337384446741664,0.385783373050953
14.49,-1.10944672643684,-0.113679010259053,0.406118153850003,-0.116104168302242,-0.375790515532965,0.396022696740191
14.495,-1.16530951763858,-0.144295824586026,0.388785402693858,-0.145189008213259,-0.394772718077606,0.403105613184848
14.5,-1.20929675704308,-0.172298736892687,0.352055218898067,-0.172234380665487,-0.381566008577649,0.402540061929311
14.505,-1.24059384267436,-0.219950703268126,0.284669098454621,-0.226554456536484,-0.3289647132658,0.393089774833584
14.51,-1.25610439491694,-0.261292116492188,0.229418104673033,-0.282563126172091,-0.261941329488337,0.3803518337123
14.515,-1.26230005829306,-0.285216140517504,0.187807667053395,-0.332820085246112,-0.201013211379114,0.356832302807441
14.52,-1.25378677649062,-0.289817715624638,0.161029648519695,-0.364827568250399,-0.161260349768939,0.324627205980374
14.525,-1.24340103383632,-0.259795616555903,0.139592828768048,-0.357695097972031,-0.150657175543501,0.278278513229267
14.53,-1.24913429373855,-0.194997972363894,0.12912632998074,-0.324994136151626,-0.172029687301179,0.208464132658111
14.535,-1.27552662745812,-0.138132179984414,0.13001730556377,-0.283987676597287,-0.205796431047071,0.142930247344268
14.54,-1.30740684840678,-0.0842698838163427,0.129603924928523,-0.220370839745955,-0.241016627673162,0.0740057631384315
14.545,-1.34399380090126,-0.0254377388391551,0.131538212170139,-0.162541916969022,-0.27728815713335,6.64046088671546e-05
14.55,-1.38389132709796,-0.00392706322044295,0.122115321496896,-0.0787122898767443,-0.304459959982695,-0.0819292667750644
14.555,-1.42589744243893,0.000438530092110772,0.112899719840512,0.00627216663081125,-0.314918102593377,-0.136219316303713
14.56,-1.44143851485356,-0.00622803899759264,0.104047793561576,0.0736009516953403,-0.34414242231798,-0.160069102579365
14.565,-1.43636128921152,-0.0259628557931643,0.0968682723238971,0.139523760527746,-0.394166982902533,-0.160232665612678
14.57,-1.4172157891991,-0.0343161369584676,0.0930475516955461,0.173584363967875,-0.456011975583184,-0.143823863753976
14.575,-1.38589231559648,-0.0405303237322081,0.0917793037828006,0.18102059683316,-0.513041222568613,-0.127786920392817
14.58,-1.33511842474875,-0.0411437074348999,0.0875996952682703,0.151762628348625,-0.557194255403938,-0.11806663566172
14.585,-1.27052114930204,-0.0419821666139538,0.0789775320786812,0.100038665133454,-0.584434282146715,-0.114163597840042
14.59,-1.19836195170992,-0.0314440706490416,0.0818519087355995,0.0204159876711394,-0.586386460740791,-0.107680890250356
14.595,-1.13120115550343,-0.0146193949230154,0.0836420318631741,-0.0585416767177269,-0.568346412867331,-0.102736198485418
14.6,-1.06861555862796,0.00809828768062091,0.101081273108812,-0.171694719551195,-0.523220177183444,-0.0937649807677311
14.605,-0.999720991024598,0.0393437974895971,0.125988437985156,-0.284508432249892,-0.461356204588489,-0.0732566154431588
14.61,-0.933882490541781,0.071037393287516,0.144283416728321,-0.404012474568357,-0.397546331764463,-0.0493780497388278
14.615,-0.87683264747368,0.0927377052697297,0.163705885027465,-0.503216427928422,-0.33849458781918,-0.0147975218081413
14.62,-0.815031360160428,0.109932922635733,0.181588065516319,-0.602626399137121,-0.26194466551201,0.038090015404648
14.625,-0.773121127938218,0.118342728461067,0.195587584026749,-0.68132636902225,-0.199588080331699,0.0814181407501184
14.63,-0.746712952653158,0.117549684854546,0.204637623704345,-0.733219313317943,-0.151887360427446,0.120336444712771
14.635,-0.737506742433908,0.113940330498405,0.208929482140108,-0.75527606284077,-0.118012288862336,0.162025966781157
14.64,-0.741862427835368,0.112600164695131,0.211463405438982,-0.763115836287773,-0.0884740059074945,0.189892504997171
14.645,-0.758422314010149,0.116707015896662,0.216955932486069,-0.759140046920637,-0.0612487872766846,0.22081479645785
14.65,-0.769995028683433,0.121010480214294,0.218903333909393,-0.743892046070967,-0.0290714028750841,0.228768609617143
14.655,-0.785458457253816,0.123512797445164,0.22594510338488,-0.719740386903504,0.00283231056748859,0.236968389260846
14.66,-0.793006517501361,0.123274811942267,0.231131561307387,-0.685833020365616,0.0378244875042293,0.246361667128312
14.665,-0.796489194145048,0.12538200995956,0.233791038138409,-0.648256077731958,0.0751154593295041,0.254373027075517
14.67,-0.804072088987877,0.128649436952628,0.237333170542731,-0.59250470013947,0.124325148921495,0.254727405368458
14.675,-0.807059389141054,0.129965478127684,0.242811477531117,-0.561049955762634,0.165787041730039,0.249008361613715
14.68,-0.803558975909827,0.117444927457408,0.241919337001243,-0.521043868415698,0.212718352835081,0.241678795582093
14.685,-0.806955313328555,0.108350672370439,0.246162073307253,-0.488340149724232,0.25235812879695,0.23561003904852
14.69,-0.811291344235384,0.0949273515525927,0.245634909424789,-0.454532609909582,0.294616582477826,0.234401662812411
14.695,-0.816293203909685,0.0785454362123249,0.242967102736841,-0.436219342416554,0.323017575469827,0.238436749929722
14.7,-0.821600828902767,0.0644292309775007,0.244154472473318,-0.421756562525102,0.329953398325099,0.245595672760549
14.705,-0.8307038174466,0.0566977636153571,0.242782875403659,-0.412994460621341,0.327952669000406,0.260522274182745
14.71,-0.844364846357689,0.036158986087692,0.242009653893083,-0.412230618731092,0.315464968218984,0.288268246354984
14.715,-0.871063135420689,0.0329527771886749,0.233319998088039,-0.40678029074349,0.289580554832339,0.322820552191208
14.72,-0.891492518240459,0.0143605660515018,0.231775900414618,-0.389886703323606,0.254838786576472,0.355223814578997
14.725,-0.927986700094607,-0.00240193172575113,0.224689390250953,-0.358820988574833,0.218974742771921,0.402625973602633
14.73,-0.970891220343966,-0.0182069463913089,0.220271831015032,-0.312681784481416,0.185857693550101,0.447558661034786
14.735,-0.99713295206306,-0.0357198439154852,0.21431147257807,-0.268456057110935,0.177566275000572,0.479493760738538
14.74,-1.03148287457713,-0.053325408782815,0.210993185722758,-0.207207691073657,0.192810791665601,0.50857972472384
14.745,-1.05899299075771,-0.0656361026358622,0.211675709030315,-0.163182059595353,0.222874795569888,0.524744201037841
14.75,-1.08139553828279,-0.0761619350630344,0.210968205548072,-0.124040463542068,0.257203028158658,0.528086937817126
14.755,-1.10793770738666,-0.0800297099200073,0.209052616444216,-0.0861899526972646,0.29559244498355,0.520714712201744
14.76,-1.12602406223001,-0.0785509760987061,0.19936193274701,-0.0688904482023447,0.329367150775955,0.511052926980546
14.765,-1.13397341467849,-0.0672125892028301,0.190977637915725,-0.0491658696951859,0.341568499507137,0.488950920264621
14.77,-1.13464717682203,-0.0479089987928688,0.18523958738049,-0.0396357190214432,0.336535135095837,0.457798792025951
14.775,-1.13128928800282,-0.0292942909776021,0.172091614536982,-0.0381972095404803,0.323444370674123,0.422301100382043
14.78,-1.11593313818185,-0.00726798743815514,0.166271097119753,-0.0335691322794328,0.301486872322879,0.37080170419895
14.785,-1.09907045090205,0.0223578875856609,0.167835376573035,-0.0329204679288848,0.272596470995789,0.303238564755839
14.79,-1.07866775982563,0.0426527496554015,0.171654864429565,-0.0369396010590763,0.245152398058564,0.249371866674737
14.795,-1.05715370141212,0.0562514107513579,0.183615328467456,-0.0488182474374629,0.215247197070597,0.18324588254636
14.8,-1.03024217371636,0.0812760188057789,0.201647171416932,-0.0491843925488235,0.200943640919248,0.123182709144448
14.805,-0.996556297911047,0.0990941684629272,0.226851297228636,-0.0850127267091267,0.190649081053715,0.0501027591603416
14.81,-0.95742923559704,0.114431564205167,0.250859346629256,-0.11403596041336,0.18866837659002,-0.00471816147855928
14.815,-0.930540159129831,0.123971454411953,0.264311987012813,-0.144856527056561,0.183672259506705,-0.0488523350064923
14.82,-0.886472376366183,0.128197174933353,0.279382163322638,-0.194688121115362,0.179435853527762,-0.0909971972744658
14.825,-0.845419244909292,0.129672309992434,0.294552629339542,-0.244285169635235,0.171852608179142,-0.127142166476305
14.83,-0.80947971718841,0.120907607954826,0.299614108224804,-0.298403728660588,0.168930343316519,-0.154384217256501
14.835,-0.779790820219497,0.114687523065734,0.299781964435854,-0.359340939091526,0.161419340657794,-0.177563895172453
14.84,-0.761977926260426,0.106714491370571,0.299984532319038,-0.416399003290819,0.162855461350903,-0.190721139324479
14.845,-0.743149603842409,0.0954968503375049,0.294782679179172,-0.469572076430115,0.161786644126661,-0.195352623776321
14.85,-0.732962499548321,0.0917469501683895,0.288916383084226,-0.5182411552481,0.168766857586171,-0.18841737498923
14.855,-0.729847776201238,0.0872472715884122,0.279766380527097,-0.553846760643438,0.169942273669561,-0.181131565172808
14.86,-0.730371507540972,0.0849100934370342,0.277555018724603,-0.577891954848159,0.178695719500814,-0.168126452755736
14.865,-0.723205123711249,0.081170183051745,0.272640636215,-0.597459530733317,0.189844924226099,-0.144187358128472
14.87,-0.732324452714676,0.0800929845486918,0.268997220172573,-0.601933440552971,0.197968560715809,-0.12046221162304
14.875,-0.745933641692402,0.0809119159553157,0.262758230562744,-0.595464242095148,0.205798233946599,-0.0929914395700968
14.88,-0.755930607390524,0.0787107396967385,0.256715704849621,-0.58348742920427,0.211605532070428,-0.0684259225490648
14.885,-0.76812986589829,0.0763578039712199,0.251493687441537,-0.560107443158794,0.21928130353014,-0.0468042278263125
14.89,-0.778209899710048,0.0784303904170307,0.255417117332997,-0.533593353433713,0.228438250401001,-0.0279227743222546
14.895,-0.79474656402313,0.082310169126335,0.253947490773142,-0.500882238757166,0.226572424551045,-0.0133744296256547
14.9,-0.814011114671922,0.0805386145368819,0.251456606607356,-0.465275077470134,0.234661434745814,0.00130824708740136
14.905,-0.839184075804804,0.0843737217990174,0.254265529077925,-0.436486904807342,0.239433040380389,0.00874301949935427
14.91,-0.866032792783732,0.0832719592193598,0.259250591604221,-0.399744261902594,0.246290814711421,0.0240749914211249
14.915,-0.89776241967098,0.0759364071939775,0.260066342649544,-0.364459051067601,0.2553819966904,0.0332051126934981
14.92,-0.927757681205959,0.0731327483624993,0.261129849688169,-0.336883884362113,0.260900534736785,0.0343158163899807
14.925,-0.961205140201575,0.0667391258949352,0.265687661990933,-0.300675360849606,0.257709871025848,0.0350332607100488
14.93,-0.995385950913148,0.0612739134638316,0.268147292405667,-0.269740608076418,0.249657195745473,0.030337145372337
14.935,-1.0305264872374,0.0587345220137407,0.265199454311027,-0.229150031002089,0.231682642369571,0.0175521133449259
14.94,-1.06159373537305,0.0449143074292442,0.269943577757109,-0.175936119916191,0.199309258544593,-0.00372544941199298
14.945,-1.08966949044511,0.0369062852109852,0.277658624207606,-0.128891748625191,0.164112657740709,-0.0295820048759745
14.95,-1.1155189506128,0.0201490505004946,0.276293964991942,-0.0772913491566199,0.121015770447921,-0.0618620775739631
14.955,-1.14079758233695,0.00794400843447416,0.279087723255058,-0.0248038166999474,0.0703710339472399,-0.0946541407013945
14.96,-1.14661606406264,-0.00721304740741203,0.285825823550532,0.0324425761762938,0.00795657619353121,-0.129431564634708
14.965,-1.14929528316418,-0.0215137725301242,0.297346926538377,0.0652144366967363,-0.0230515019074007,-0.152181107361904
14.97,-1.14004418823013,-0.0386596583009888,0.307690647012896,0.102020812975267,-0.069543993973684,-0.17760011993132
14.975,-1.13132870752545,-0.0472129005323368,0.311258625966844,0.126109109161512,-0.0911453880599964,-0.1997238473121
14.98,-1.12213538204095,-0.05002712818893,0.317458032901338,0.151139472594263,-0.0969933564953666,-0.219731913397778
14.985,-1.10393537335981,-0.0551386229348221,0.32298797710504,0.158755060813197,-0.0881815392952369,-0.231769089115329
14.99,-1.09248621277377,-0.0614717623390231,0.333709715227658,0.160952063645116,-0.0727684146982904,-0.246461437905571
14.995,-1.07918497383869,-0.0569217830498224,0.339414760629457,0.154614295944594,-0.0457536253032556,-0.258309470240903
15,-1.05398722962543,-0.055545564459571,0.339297899505834,0.142415288555346,-0.0304775156421036,-0.265116972988982
15.005,-1.04349767376505,-0.0513972122827552,0.341268153218689,0.122859809228319,-0.01057468354702,-0.265443724907944
15.01,-1.02254119464668,-0.0486943145219338,0.339484644475804,0.0990278391390808,-0.010202326267425,-0.271905680845919
15.015,-1.00488699426353,-0.0403433049483896,0.341507073250383,0.0770755770487647,-0.0133307401845132,-0.271974906855569
15.02,-0.977872674228942,-0.0345091456749575,0.344381312263798,0.0496865506493451,-0.0271078592600544,-0.278780851581556
15.025,-0.952126914229333,-0.0264124461587258,0.343343272329045,0.0158501973478524,-0.0387546603788022,-0.284552997204523
15.03,-0.929772006049472,-0.0228296601317076,0.345496035304263,-0.0209962709374536,-0.0468407707277434,-0.295093092481316
15.035,-0.900402243495401,-0.0177180667216364,0.346245989929069,-0.0615423206144515,-0.0524004973965224,-0.308944146005782
15.04,-0.882733013222001,-0.011090408438454,0.348710831707145,-0.107291132037067,-0.0441527261461979,-0.322966174001595
15.045,-0.865772503243535,-0.00665664178810821,0.350857850280457,-0.153962482513462,-0.0363667103070119,-0.355043395319061
15.05,-0.846054512743914,-0.00598734985787846,0.349576676041864,-0.200430275330494,-0.0215652098354277,-0.385756539004774
15.055,-0.83035282739041,-0.00684700096743032,0.351467436406235,-0.236637325123958,-0.00884522015144713,-0.416056817149225
15.06,-0.812136832018752,-0.0153194616522936,0.352943066346436,-0.2851516691653,0.00750090908960791,-0.471576335700885
15.065,-0.793220251505508,-0.0337182035494341,0.359595211525907,-0.33568506135736,0.0433108259119631,-0.550817318512567
15.07,-0.87738957420009,-0.0477357789412826,0.366794809626933,-0.33485913968708,-0.038267153426534,-0.45418908267214
15.075,-0.856397252166181,-0.0254880381111437,0.358247204436838,-0.283754608146899,-0.109805858479885,-0.412169930338171
15.08,-0.927067715947689,-0.0298232640119091,0.374904043447663,-0.311059501374502,-0.140817895901577,-0.504345578815026
15.085,-0.955252934218093,-0.0151339685906536,0.351220404537135,-0.29903894703463,-0.19993731379509,-0.502044125962239
15.09,-0.997567245838173,-0.00673576759195359,0.328058619855075,-0.328244885423438,-0.142879900727221,-0.491664206220154
15.095,-0.98751462805025,0.00417299759662873,0.300630413903966,-0.356249053606795,-0.0303818709549349,-0.598566097825313
15.1,-1.00203464420899,0.00503704441328328,0.262663073728345,-0.332942732002051,0.0574673153657681,-0.632286693903305
15.105,-1.02139741282195,0.0175135618467139,0.217744364759565,-0.310717073915106,0.0787691881122513,-0.573208408303039
15.11,-1.02152063780133,0.0117272390577759,0.173281604395427,-0.302755730611949,0.143692025493685,-0.537501289283651
15.115,-1.01777435788676,0.00628615634054877,0.148723164726135,-0.287819889879649,0.217289014318074,-0.492236127612492
15.12,-1.0245953169424,-0.0119428164546257,0.125535734924086,-0.269903388998992,0.272309247848199,-0.420189941906989
15.125,-1.03106446911791,-0.022844747139583,0.123148395122609,-0.266578812350835,0.310946363169429,-0.336000091220809
15.13,-1.05283210411727,-0.0397724832686623,0.124759180962796,-0.269022437538213,0.349411180209416,-0.248311021861993
15.135,-1.0698213539888,-0.0572216389559564,0.135390188548846,-0.279502896546097,0.350965714219894,-0.172207627303793
15.14,-1.09286945813485,-0.0665410847796014,0.151685093372932,-0.289077952096787,0.331376516627693,-0.114510551250847
15.145,-1.12446756203152,-0.0842066132226983,0.166723217106775,-0.315932134047262,0.305885336724935,-0.0574487343524978
15.15,-1.15276660378661,-0.104004226685206,0.178467595360945,-0.341196482458383,0.283217782697409,-0.00806024592131518
15.155,-1.1767184049468,-0.123373253874297,0.185183858476303,-0.362028361275139,0.263491298663745,0.030738736161137
15.16,-1.18588714649142,-0.146058850995929,0.193239826580065,-0.353019317930155,0.230703622572027,0.0661343986870511
15.165,-1.20355876982804,-0.168588342894805,0.19235646683679,-0.326629029829487,0.190874992456201,0.0731922733401074
15.17,-1.19778945123117,-0.190401149148547,0.191314114555599,-0.269568717828753,0.129429133225973,0.0732942229718076
15.175,-1.20273231479348,-0.205175065409071,0.191859780651996,-0.186554818072253,0.0446168051216448,0.139671753890614
15.18,-1.20350334904552,-0.217073187517688,0.195178548776477,-0.097962023389801,-0.0352629836053892,0.183720616593118
15.185,-1.19525725901309,-0.22961602711006,0.198334401820349,-0.00990816952039884,-0.0717916627267352,0.178253060977223
15.19,-1.18505978008186,-0.246357062101076,0.201401552167181,0.0799493500929396,-0.0619787240414068,0.124725380484357
15.195,-1.15842268168917,-0.247952928476884,0.19333953992342,0.151364180824093,-0.0225620206573827,0.0807308725396659
15.2,-1.13764872091053,-0.248669598472983,0.176847217533668,0.219016575436125,0.0767651767950827,0.063063046251326
15.205,-1.12674546405561,-0.245401955256199,0.161317335068149,0.282915240415534,0.192494657288205,0.0327102556223262
15.21,-1.12937965036241,-0.239083543217982,0.146677369891403,0.355522782483649,0.30835589320999,-0.00791990892424126
15.215,-1.12926521967645,-0.228293239996352,0.129741491158099,0.423464075004772,0.384762677605707,-0.026044400374754
15.22,-1.13986893498691,-0.225160005316056,0.116652905732815,0.473431552408703,0.426309129964685,-0.0272032098186508
15.225,-1.13767538033999,-0.223117848277092,0.0949565426615588,0.512291421111848,0.421037567776897,-0.0258090894736667
15.23,-1.13921870084341,-0.222346583784458,0.0779901729036145,0.534131139845698,0.387462774537314,-0.0290813804743649
15.235,-1.1276748877577,-0.218757436517492,0.0616556219059939,0.554379887355444,0.354416632501631,-0.036136713642832
15.24,-1.10965807323234,-0.218947649850665,0.0418928005031046,0.558982908260968,0.319271652408756,-0.0445754527810336
15.245,-1.08807652092321,-0.224308902202943,0.033102297921519,0.555489586757606,0.284276273265125,-0.0679803008712643
15.25,-1.06222518968778,-0.231783508813458,0.0279784592425235,0.53471698642904,0.251245059719117,-0.0906008374431326
15.255,-1.03130149779272,-0.233192495813376,0.0347769836061003,0.489542612465292,0.218874013048583,-0.117030851343601
15.26,-1.00600003467588,-0.234712953332554,0.038377334200966,0.425782050733704,0.189578883423872,-0.132416566675899
15.265,-0.974571910930959,-0.236195532621106,0.0479709925798564,0.346092738742587,0.158012561306703,-0.149009469381126
15.27,-0.948275434645904,-0.230738630906544,0.075332484853127,0.276513125731486,0.118410362862535,-0.159967721385728
15.275,-0.922276784448485,-0.231936875419328,0.0974217371274107,0.20244461303361,0.0986068538436405,-0.169581524167331
15.28,-0.906240284135492,-0.230924437051809,0.117380627243395,0.150750311407136,0.0802941505006196,-0.174114425577006
15.285,-0.89264135827934,-0.226546705530461,0.131393290657565,0.122775962292304,0.072142018978172,-0.175105153855614
15.29,-0.877165005352049,-0.223040040072826,0.145702808205607,0.106397991370334,0.0694333339724636,-0.181699021332972
15.295,-0.867553116404997,-0.222277767140063,0.158437399130766,0.103890667153452,0.070301188725495,-0.187619847453164
15.3,-0.865012606999125,-0.21598053014436,0.170031355763449,0.118760326019577,0.0746508583138692,-0.194633183920528
15.305,-0.869472747555398,-0.216210785726382,0.173248919237385,0.143684452552091,0.0811659081528035,-0.196905344724655
15.31,-0.868541365425383,-0.214861090043031,0.181591443329541,0.179039857407416,0.0668127803888616,-0.199284008421959
15.315,-0.870617732352951,-0.217372276688659,0.184683252631416,0.215682774489189,0.0362399590737862,-0.196846683202722
15.32,-0.881746696787995,-0.222907706067093,0.194048539660195,0.273840629013542,-0.00843101622505744,-0.193584629231805
15.325,-0.890513264041616,-0.216072741645171,0.194664842211247,0.290440483336412,-0.041492779453669,-0.18150752624655
15.33,-0.892711789277811,-0.221171938033565,0.198063101864709,0.305524476956421,-0.0903822639795296,-0.169454005219085
15.335,-0.898043332250586,-0.21594998029067,0.201955236116178,0.295394921581982,-0.118582319302078,-0.156638255691716
15.34,-0.906978310070904,-0.212185556741498,0.204353348334546,0.27294961504885,-0.145740858545395,-0.136762180475886
15.345,-0.909909256833402,-0.202643114476171,0.206864197633756,0.245072419319556,-0.16814770512892,-0.11385568267988
15.35,-0.910258329124976,-0.188822150985411,0.206939085917387,0.205559772920804,-0.175057795077894,-0.0949590942643302
15.355,-0.911884298817034,-0.17434226257157,0.206296802106733,0.163808028434324,-0.174796583636136,-0.0726145670615564
15.36,-0.914701791988879,-0.168023626949542,0.201697755427204,0.10794825122351,-0.159155399418146,-0.053501070139012
15.365,-0.915509407510942,-0.161524235739438,0.200209928547264,0.0732273075473549,-0.141330865604183,-0.0393285342017697
15.37,-0.919122566328245,-0.154233339823283,0.191673833887564,0.0425411104711974,-0.106590479752209,-0.0234308739182738
15.375,-0.912588958032422,-0.147715869026018,0.182430927596281,0.0260351782868985,-0.0766860288708502,-0.0155274010365548
15.38,-0.909391458246154,-0.144660115021384,0.177586243736538,0.0217624415214255,-0.0501054450285589,-0.00986528119933612
15.385,-0.907536998102495,-0.147105528191645,0.173244907926829,0.0242703862311816,-0.0173905985614244,-0.00524468874264498
15.39,-0.902068243876768,-0.150264029562744,0.168582277766394,0.0308169885854267,0.000921569989477932,-0.00474773208130461
15.395,-0.901793209946759,-0.159076539729883,0.166835190619327,0.0434821798912655,0.0142898893048357,-0.0081605666687492
15.4,-0.89802558009145,-0.168737030304227,0.174188287252375,0.0623632479523593,0.0140534825716204,-0.0166362818767747
15.405,-0.903537777177736,-0.177713528215066,0.167794214586109,0.074720208079458,0.0126481088724535,-0.0185273406180937
15.41,-0.8884307191802,-0.195391398965833,0.184149006960833,0.0970638968979196,0.00190661266246924,-0.0277860518018173
15.415,-0.882340290462832,-0.204156596941222,0.182898984186238,0.119583183349184,-0.00842133906175672,-0.0374016888143307
15.42,-0.880817154696862,-0.213921069684279,0.193966386660213,0.134977785283365,-0.000801123678684235,-0.0414690786852622
15.425,-0.877801683535145,-0.219811591843336,0.207346110274711,0.146726354864224,-0.00125596614970742,-0.0498208055922031
15.43,-0.866730596307364,-0.226374759428657,0.217995622727645,0.153068157631363,0.00299226263802434,-0.0564425414295027
15.435,-0.858798627624366,-0.229417516008971,0.224860004178524,0.161861240082383,0.0127392807002852,-0.0604827580949867
15.44,-0.854174349181802,-0.228845765564219,0.232390624899686,0.169550820312669,0.0232959878038604,-0.059410764270116
15.445,-0.845329517476031,-0.236571987559427,0.241960853591742,0.181946622347351,0.0299521493113809,-0.054093093254329
15.45,-0.835170606162164,-0.241252738442162,0.250118889592416,0.189072263013279,0.0412379504385391,-0.0455528668511933
15.455,-0.836046019693828,-0.290435635309829,0.255374203943477,0.204666328441633,0.0623831903614329,-0.0364244058585009
15.46,-0.829508527355212,-0.234838093042068,0.260138760293381,0.21154659963735,0.0807562034446728,-0.026944820282943
15.465,-0.831098289479179,-0.229282322472854,0.261836027874405,0.223544125172388,0.10943897925776,-0.00984736756626733
15.47,-0.832260431836183,-0.22212877395471,0.259221956722415,0.233534157547511,0.137709410723604,0.00324919680087179
15.475,-0.835720179749346,-0.214755870858665,0.252459518227239,0.243028033598661,0.173783451730638,0.0152881552122109
15.48,-0.8373312243684,-0.208327869006291,0.248779729086486,0.252469359886013,0.207951664322064,0.0301243344483236
15.485,-0.835669389208752,-0.201298860605476,0.246683130509044,0.257388454064542,0.230584836847495,0.0409570936069278
15.49,-0.843227921216235,-0.193744771843135,0.242291004653959,0.265937162381208,0.249499021256637,0.058281600707632
15.495,-0.851069498920264,-0.186868670704754,0.242886855637776,0.269043684686734,0.259451760885253,0.0682503193520467
15.5,-0.859154613184326,-0.184971807293099,0.245152985065018,0.264362732052561,0.267764808212693,0.0799356881659006
15.505,-0.868301848472938,-0.187681263541139,0.242852414161941,0.264999557401175,0.280999648648325,0.0897822112618127
15.51,-0.88392401655959,-0.184272029528162,0.247472952864932,0.254071142338767,0.288469378541806,0.0950921335894932
15.515,-0.900101741178208,-0.188331260209586,0.244310402887356,0.244990979547428,0.298083125925306,0.099606544152432
15.52,-0.914258885698447,-0.186762474801398,0.24226741861206,0.235023400568522,0.298410462891546,0.101747193711741
15.525,-0.923296175188016,-0.190532179133026,0.241896135318493,0.220388342023353,0.291015244013899,0.102409824728966
15.53,-0.932734681002052,-0.192146870096388,0.236709465034772,0.210615402681891,0.276246485077435,0.0956478558800172
15.535,-0.940083854125445,-0.196251402705373,0.230094497679783,0.19530931394557,0.263111575561949,0.0877628262594044
15.54,-0.946187704945091,-0.191368848573284,0.232834208957099,0.184395586040207,0.248537364101608,0.0821262875294796
15.545,-0.949386885083016,-0.195134272711798,0.230132260665986,0.165636069447147,0.232874614040004,0.0708948385617804
15.55,-0.954500433415418,-0.194658028768988,0.238895820649889,0.149334710763506,0.226331893827085,0.0556789520335497
15.555,-0.950188137187523,-0.202134377626551,0.241329158195397,0.131868493493005,0.22521236538887,0.0496324928920292
15.56,-0.953504230629961,-0.203281860276032,0.243483146675942,0.112828908338728,0.225739690013199,0.0385214168599569
15.565,-0.949520942994873,-0.198614197754482,0.252434678739385,0.0972035871985013,0.220664190409676,0.0306684534263417
15.57,-0.989334398737809,-0.19552391593875,0.259390857514838,0.0834974761953944,0.2175605065044,0.0221646983520471
15.575,-0.955521326252145,-0.194398525220425,0.264314435628897,0.0767715341624546,0.213729701119356,0.0226325322301722
15.58,-0.937977357009022,-0.188051814425606,0.264894388511992,0.0680622805604306,0.211856135571187,0.0218603964647835
15.585,-0.92699604027605,-0.188892513509958,0.269536931914552,0.0692911763404165,0.207981113918333,0.0227981490717005
15.59,-0.920478589639778,-0.184329972122347,0.270479969235117,0.065613482330669,0.205093763665475,0.0357356280238045
15.595,-0.917449389966514,-0.183749257723324,0.277292022803804,0.0751429697639901,0.195120656541785,0.0539786004634457
15.6,-0.91246100664626,-0.182164875066905,0.283425217873596,0.0887187441789926,0.180169260347941,0.0710837181272166
15.605,-0.906330516240731,-0.179174364572805,0.288869088929804,0.099185214758458,0.16403743463523,0.0957615741420758
15.61,-0.900937689008101,-0.179935076616049,0.290492048122415,0.108301789608455,0.143975133102256,0.120514508890583
15.615,-0.898775488949481,-0.176801422129574,0.293866798118603,0.119160321520129,0.129556423450859,0.141269827848741
15.62,-0.89193696011111,-0.170927688261399,0.301282824058444,0.126250691982763,0.119459611582036,0.157194913619255
15.625,-0.894084959077804,-0.171347739936064,0.307766053179885,0.126279922237663,0.109155283572149,0.180130864805218
15.63,-0.89574312022156,-0.168882376876598,0.308117450146624,0.134008617311563,0.0955438587393763,0.194301503325375
15.635,-0.892462621949772,-0.165368490849685,0.310255138931662,0.129866711415378,0.0896791664088575,0.210897206518136
15.64,-0.888180248109878,-0.169263066992276,0.307624985174105,0.137418236884563,0.0865683549581201,0.219655842793339
15.645,-0.891807364867341,-0.165163544296116,0.314027739538124,0.138111074727082,0.081692386864377,0.230862067780087
15.65,-0.889123141849848,-0.164870711312258,0.313795198659097,0.130545399497018,0.079830713570118,0.243398878145859
15.655,-0.893969576858317,-0.169857502821254,0.312420325998747,0.122744133870169,0.0792904899600267,0.256858801394466
15.66,-0.898471391690802,-0.169740260648784,0.312505409589894,0.115460729604443,0.0755706767277452,0.269750199708038
15.665,-0.90127831922121,-0.171318726752055,0.31718616623383,0.101924211969806,0.0773101967132749,0.288994857336798
15.67,-0.908188567974555,-0.173414579474952,0.316130801040582,0.0777295390543428,0.0871139346208185,0.298444266741264
15.675,-0.908800613223413,-0.173325872068016,0.316586221886398,0.0574360634120037,0.0857520005787081,0.313383600282013
15.68,-0.917256934625696,-0.180689043166618,0.31605559676549,0.036657800893585,0.0836257297857444,0.324965790676963
15.685,-0.926665851596409,-0.182291059873006,0.314149754209161,0.0104687747049308,0.0850799400524884,0.338424958354866
15.69,-0.932791972048048,-0.188406018758215,0.314530103551684,-0.0126212690924926,0.0851478326064596,0.348426253547806
15.695,-0.941329287884355,-0.189642867577007,0.312409758348214,-0.0281368419321328,0.0758355693600934,0.354188918832951
15.7,-0.948774921823587,-0.191719737576822,0.314057304831689,-0.0384079889815468,0.0693027508332314,0.474746992714748
15.705,-0.956701762759798,-0.191081146552072,0.318386978157842,-0.0452994747410508,0.066298939150173,0.528704539264242
15.71,-0.967125288455623,-0.188458609725532,0.317459233993854,-0.0479635495575811,0.0578473572424338,0.350420945222274
15.715,-0.97858888889321,-0.188149805799558,0.319981733011394,-0.0499313111618494,0.0568865724130152,0.344715139794294
15.72,-0.987777985340508,-0.185276803161328,0.326807901472885,-0.04941396223528,0.0590619072318077,0.334256064030344
15.725,-0.995606147697007,-0.182569225700626,0.32314847505329,-0.049533947553309,0.0561868331284855,0.32485320501323
15.73,-1.00398194210171,-0.178014615836937,0.326152900038295,-0.0397168161634733,0.0531567178455594,0.314576101218701
15.735,-1.01515141655901,-0.178983220219612,0.324250741124153,-0.0253817339291215,0.0395331357418359,0.304002749157507
15.74,-1.01158362763912,-0.180842938609526,0.319405380069316,-0.0202158674184353,0.0241476544938207,0.295176818000459
15.745,-1.01760467416985,-0.178643708457982,0.319929422304999,-0.00961513464110676,0.00104369302037659,0.28515349056906
15.75,-1.01540750047029,-0.181875384108922,0.321798115010091,0.00129266615053668,-0.0248623323006694,0.278264077909534
15.755,-1.01692643292961,-0.181052838162397,0.32534182056979,0.00479078517101015,-0.0507497115619404,0.274474650727243
15.76,-1.01638163183556,-0.174826271298165,0.328103120819003,-0.00222780787072112,-0.0765623202028746,0.271721353319513
15.765,-1.01629975181406,-0.168477959327535,0.335464834267231,-0.0125464220522587,-0.105962382854929,0.268760279336021
15.77,-1.02061945837558,-0.162018365772303,0.338328076620953,-0.0282645468020046,-0.132479865769335,0.26525622099525
15.775,-1.02977155540236,-0.161791100597508,0.341224788391967,-0.0471722659951718,-0.150981473044641,0.269407757965559
15.78,-1.03195270542945,-0.16234352683271,0.348597519920113,-0.0575896504405129,-0.16355882204896,0.272035477194607
15.785,-1.05345384680634,-0.171198492371898,0.348199816487842,-0.0762406406323174,-0.188926065644741,0.277614521152768
15.79,-1.07448288893033,-0.178429412973199,0.349397357354734,-0.100124605837201,-0.20655083044011,0.28384613728074
15.795,-1.09780040334553,-0.188054094299731,0.344466823597587,-0.10996834658429,-0.237034161741348,0.289244063569062
15.8,-1.12221568252107,-0.199832268754802,0.334699062926707,-0.117846788822904,-0.260137160205531,0.293696361506376
15.805,-1.14183103790078,-0.215254473347471,0.319508772454175,-0.12001917054677,-0.263516524001196,0.289812215131647
15.81,-1.16077361765778,-0.231203360397553,0.290715760153651,-0.115554877055328,-0.252274344507858,0.267490731241392
15.815,-1.17392929164765,-0.240369243682962,0.26903748892032,-0.114196537596101,-0.233815191405155,0.234564799770315
15.82,-1.18377605855844,-0.232740674646814,0.250917611269352,-0.114547088742256,-0.211569735892669,0.174947186017622
15.825,-1.1772381630333,-0.217024818962146,0.23191807998459,-0.114547088742256,-0.201453875054005,0.124779216542026
15.83,-1.17542045207252,-0.192047387746616,0.222256766639852,-0.102633750984995,-0.205144232757845,0.0968238903128552
15.835,-1.16482818510728,-0.156821884796889,0.220556979333048,-0.0710430355370128,-0.208197155750712,0.0816053090018184
15.84,-1.18162554268397,-0.127300504022376,0.22088420391066,-0.029661763782808,-0.212995380475331,0.0722480462522096
15.845,-1.21581690764819,-0.104031919296645,0.221688242412004,0.0193574595940564,-0.220350075211128,0.0643418477840887
15.85,-1.26419821123607,-0.0781758830171199,0.215291103729599,0.0860506201110372,-0.2243712246418,0.0397163376205709
15.855,-1.31930426122179,-0.0637184837707253,0.197868201107981,0.154117436867906,-0.222631092126783,0.003339901066882
15.86,-1.36006899987929,-0.0574089431095802,0.175689104411164,0.228588001225649,-0.218892123243137,-0.0567060828561923
15.865,-1.38866218631184,-0.0494870997181965,0.157193847469764,0.27734004215274,-0.225302877999612,-0.104953098744769
15.87,-1.39804026064126,-0.0525948078733245,0.129510674931443,0.307951093088813,-0.255205831397164,-0.135668079234614
15.875,-1.38449602853722,-0.0525300571354355,0.105410884735203,0.308842028817154,-0.307571978817217,-0.145142028642104
15.88,-1.34956707462053,-0.0445558564647797,0.096015605039987,0.281516189506616,-0.357521296060386,-0.138890299687215
15.885,-1.30172145317841,-0.0338069991314832,0.0910858638948584,0.220922858812786,-0.403311202493516,-0.126342104497519
15.89,-1.24544577839285,-0.0192805849085891,0.0936409025798153,0.141848438966572,-0.405378978496676,-0.112426105572266
15.895,-1.19434000947174,-0.00522292905657906,0.0975321730975482,0.0746518874243339,-0.380540194734285,-0.103393728874394
15.9,-1.12362650423914,0.0271015624346823,0.101819979656683,-0.0217850984678235,-0.308009873853551,-0.0876737368648405
15.905,-1.07995631783285,0.0441732234886537,0.10340964352014,-0.0767897060347405,-0.25269861404627,-0.0804815882655896
15.91,-1.02257970756356,0.0663599123967867,0.106518387268956,-0.138062733804547,-0.204596533819937,-0.0458364105887282
15.915,-0.961261232373715,0.0927215875097606,0.11762570169765,-0.182011342611728,-0.125919964475184,0.0155594344721164
15.92,-0.912565640717288,0.115482989910767,0.123157119004946,-0.247629282710982,-0.0494575734745729,0.0603787374615622
15.925,-0.885630316759817,0.135046496842812,0.126882731311491,-0.327996925027544,-0.0279610217221079,0.0840114160323136
15.93,-0.864943573883326,0.143886916724935,0.129064904520991,-0.417137125408458,-0.0402279483155768,0.105130372536119
15.935,-0.850165756129789,0.135279326836522,0.129045003490235,-0.459115094236463,-0.0637936201265536,0.124460503496727
15.94,-0.845205804932171,0.130086789813646,0.133664412783571,-0.458390616014364,-0.0722028259757152,0.139869855686777
15.945,-0.839050074783822,0.122619680871039,0.138560572669511,-0.442548572563037,-0.0676563726055616,0.145590214423152
15.95,-0.837823960727944,0.117302268392019,0.150590723851434,-0.420481926865585,-0.0401741571985826,0.144193100434716
15.955,-0.834228885601581,0.118949416566911,0.14886582435288,-0.406855531018087,-0.0101616198330936,0.136859862119786
15.96,-0.828445389448585,0.119099320267387,0.163063531067137,-0.394169577563492,0.0227385493627603,0.126843705773354
15.965,-0.817940849952229,0.116554425164238,0.177965730008154,-0.377844894507879,0.0580294028262637,0.12832453357505
15.97,-0.812692891328121,0.118695038172866,0.182987310198306,-0.361503598575394,0.0827981919190031,0.145693221702252
15.975,-0.809188170396595,0.118734356260517,0.192284832935937,-0.345750251059788,0.110343890246636,0.16936853788322
15.98,-0.808896459835436,0.119246198454916,0.199200798657373,-0.339069707878164,0.140273201812441,0.185402055677275
15.985,-0.808360143539177,0.122620061644211,0.210852389322813,-0.340506764002067,0.178621218641543,0.200355299678966
15.99,-0.803570938214681,0.114504593949408,0.209840676381989,-0.346289932244393,0.218371075136755,0.217653630379016
15.995,-0.800557877886317,0.107332175948632,0.211418349946839,-0.357985387195345,0.256930213670673,0.246363035367076
16,-0.809310168112239,0.101253618164902,0.215861238459724,-0.374156706162491,0.290012176392451,0.281896107795126
16.005,-0.812716499220749,0.0910573833515314,0.21441565774214,-0.385933367952922,0.310854680771132,0.320258069238224
16.01,-0.825318034719667,0.0824683644618352,0.21474219866751,-0.400511237492488,0.320766412432965,0.359579176140995
16.015,-0.843039959699098,0.0777408707975551,0.21454940961665,-0.405310362577438,0.321999751847961,0.402746333117481
16.02,-0.863250996520264,0.0591503103977717,0.216201666188039,-0.398137256409563,0.318285402546907,0.446692091271109
16.025,-0.884200197791455,0.0483464818008229,0.213570652393079,-0.369848661846874,0.305023708298323,0.479935147224435
16.03,-0.910928520095939,0.0373889238434447,0.211983037849392,-0.319023509943428,0.298379985014731,0.50385251242999
16.035,-0.941767547621638,0.0231327228730154,0.205666982931873,-0.253635112524407,0.304195602928583,0.520962670769992
16.04,-0.965980203661001,0.0111750870231392,0.202499167368793,-0.200520632475466,0.3227962890766,0.525785625210574
16.045,-0.992964920811025,0.000478991194071911,0.19759154556447,-0.147688153571395,0.344224527242521,0.525116145610809
16.05,-1.02603574741791,-0.0185771986669891,0.188586761177415,-0.0905939973492756,0.365220813042748,0.524342204123428
16.055,-1.05289268058197,-0.0289847026811363,0.183646990550235,-0.046997014875178,0.368941297113011,0.518109933194699
16.06,-1.06972615245398,-0.0325741429807263,0.175726281620501,-0.0217221674098579,0.359526842913578,0.511509776670667
16.065,-1.09190479694472,-0.0244818793264758,0.157041113462152,-0.0091552646535444,0.332740987204943,0.507126546519564
16.07,-1.09340006700263,-0.0161211696596241,0.151070605551534,-0.0162142980533404,0.315683639224578,0.501498604203739
16.075,-1.09179227256479,-0.000296699390822483,0.151540426083717,-0.0362688281678274,0.285888986154977,0.483306432196139
16.08,-1.08179171102698,0.0173938944761442,0.147484554748825,-0.0551220186766282,0.25721023564005,0.458268707165521
16.085,-1.06019355204586,0.030927981538363,0.148629332795673,-0.0795010071081773,0.228248247457588,0.417716212952592
16.09,-1.0392305743078,0.0416187345113911,0.157609959531678,-0.10950091214472,0.212785259548761,0.368910192375034
16.095,-1.01714070993008,0.051079545408822,0.169063008766831,-0.140392948674742,0.212064117270209,0.319741247860598
16.1,-0.98118848333554,0.0630217072522214,0.189068532771237,-0.177067639111608,0.216050738493438,0.246751280865973
16.105,-0.964245224556669,0.0683386027534138,0.207237178025112,-0.207441642068449,0.208871515459817,0.192069793725138
16.11,-0.931151348969815,0.0798836323350071,0.224962823041821,-0.244866055440207,0.208621032847836,0.119947710436906
16.115,-0.904905136527222,0.083308924119334,0.245036013067729,-0.282230414336076,0.198901810587488,0.062066092528355
16.12,-0.878699096527931,0.089693590887571,0.259467784975552,-0.323401983663573,0.188150132439333,0.0106655641127137
16.125,-0.847830916193313,0.0922864073868381,0.276409112675886,-0.371859657625261,0.178678794492966,-0.0394234458094392
16.13,-0.821454499485645,0.0937620802091537,0.286427903817021,-0.418320991805358,0.173159209128298,-0.0801540537437378
16.135,-0.799949690606348,0.101882703461496,0.290895217568248,-0.458207686973384,0.171893606407082,-0.110436570175027
16.14,-0.777688035579933,0.101462394630924,0.29705597142173,-0.499530599571775,0.184640536367419,-0.135666116771833
16.145,-0.758506609448016,0.102999193165345,0.298626884848724,-0.539467585507019,0.199073158448067,-0.154372496648337
16.15,-0.749001362548526,0.0996540470513103,0.291106987670717,-0.565023744090213,0.211599739806096,-0.16500596371126
16.155,-0.743226421227046,0.106858217533799,0.284858037253651,-0.582555937845277,0.220674982395802,-0.177657704626335
16.16,-0.741045939820448,0.107441518315956,0.275132387256959,-0.586320833003905,0.230501845511694,-0.185094486930196
16.165,-0.749747529565775,0.107451223371134,0.273667576888967,-0.591887123615577,0.239589564735039,-0.187131777405739
16.17,-0.75878129593263,0.112192464424887,0.267617107960953,-0.583875552953091,0.245350014934135,-0.186698362071436
16.175,-0.770632482847403,0.112392017972323,0.25817863419739,-0.570410741541107,0.251518726044796,-0.18070384197685
16.18,-0.786172873319539,0.108401270879615,0.255185884963301,-0.549156924662279,0.255084405548941,-0.170895710627771
16.185,-0.798261687916256,0.104582659578933,0.251202802309863,-0.531591924790886,0.26021836892054,-0.157048351990814
16.19,-0.808328122540089,0.10458493393872,0.247234860601161,-0.505311803374127,0.262715812565742,-0.139766009317252
16.195,-0.82335857943646,0.102573173651505,0.240844937070308,-0.46866521690543,0.25907740043903,-0.11756708061689
16.2,-0.839936424322211,0.0962110420113637,0.246877998576092,-0.439035865669762,0.257069827036432,-0.0991623141304524
16.205,-0.857309140458696,0.0893352938817608,0.23701382400156,-0.405919349964356,0.243248138555535,-0.0776916926232021
16.21,-0.880670834117428,0.0800564341544246,0.232930697921985,-0.38300064013979,0.239202723375761,-0.0542508131770856
16.215,-0.893111644653193,0.0770023893440352,0.233450419207524,-0.353930916272168,0.226938116614327,-0.0366497995529163
16.22,-0.913407320041796,0.0695490732050489,0.227439671555813,-0.325581181050946,0.218763839408378,-0.018479178601104
16.225,-0.928910758528347,0.0618528835102632,0.230849703018444,-0.301147359593343,0.210192303376231,0.00299103218215579
16.23,-0.94703366111992,0.0588705200404443,0.233793429839297,-0.277937934669772,0.206010192254015,0.0153054058059027
16.235,-0.968625396162677,0.0529086171312856,0.237436235252724,-0.246513823317511,0.202120935969297,0.0276567812705611
16.24,-0.988254882721691,0.0434111624087462,0.244563401793507,-0.214315353787096,0.197113394737244,0.0382041429451179
16.245,-1.00618314123557,0.0382352324442172,0.24775499999703,-0.186429275485912,0.19433490810986,0.0450297401706015
16.25,-1.02595736039179,0.0300657656978356,0.254575371839026,-0.151014661629986,0.182100629022364,0.046211875975132
16.255,-1.04890566314657,0.0215573623441518,0.257931335597331,-0.119498275401766,0.183571864345699,0.0403606214933191
16.26,-1.05853591729057,0.0201544972447076,0.261270921980313,-0.0969407853954027,0.178709599653115,0.0355761757727956
16.265,-1.07329301839503,0.0142334465317889,0.264717388821859,-0.0693062152907301,0.177318117734586,0.020890340289507
16.27,-1.08950561832911,0.00810827157798749,0.265646270897506,-0.0440744165339075,0.175560150360738,-0.00104860584909292
16.275,-1.09151394396129,0.00350461240724503,0.270562929281598,-0.0264646283397302,0.176711658948572,-0.0229314777870547
16.28,-1.09072882127218,0.00328138979940538,0.274830323400064,-0.0191519741317462,0.173849719446938,-0.0471001699761834
16.285,-1.08373636366648,-0.00326609725618138,0.278360666766051,-0.0168115310370922,0.171971412925403,-0.0696695522353081
16.29,-1.07554971989624,-0.0105112499153945,0.284650422692,-0.0234397772248584,0.173943393714745,-0.0924859923385103
16.295,-1.06126946596683,-0.0139086005200059,0.29920373349601,-0.0360822834446955,0.181770926018901,-0.120063606467263
16.3,-1.04119869704634,-0.0198961593215568,0.306147645682777,-0.040932197151652,0.18793507670973,-0.140958193884787
16.305,-1.02943414326982,-0.0210535719449749,0.316572429017077,-0.0550595000479428,0.187410349127264,-0.155813684152161
16.31,-1.00379251543196,-0.0259143199134387,0.324436633017428,-0.0647686994433991,0.185051980066966,-0.185077241658282
16.315,-0.97944170990145,-0.0266600646166419,0.328983858503801,-0.0747295518250128,0.191112213540305,-0.200393963507572
16.32,-0.96597471216513,-0.0257374930556501,0.332131093784615,-0.0794056233441556,0.201066137082554,-0.227089005068857
16.325,-0.949213334631882,-0.0265825588174542,0.333393714449367,-0.0853610245415758,0.212898816810643,-0.250832475972606
16.33,-0.927554730988167,-0.0276189164935293,0.33599703021615,-0.0930758752827517,0.233021108832426,-0.28037775558602
16.335,-0.908892796682918,-0.0277301285743534,0.337140244081706,-0.101209577068443,0.247031578134853,-0.305293586447826
16.34,-0.893934132516094,-0.0223656399698905,0.333865570294738,-0.111446996309667,0.257750105910472,-0.32875661011201
16.345,-0.879438414517968,-0.0195548397319961,0.34156593644843,-0.127107913103395,0.264013969171939,-0.345147397160918
16.35,-0.867421188571803,-0.0133782105420809,0.342310819711531,-0.14652160529996,0.27592627763484,-0.390170703687704
16.355,-0.863927616960695,-0.0105008304724521,0.340945391813438,-0.173108094595911,0.283654240650188,-0.427207234603702
16.36,-0.85978887792615,-0.00434607684618948,0.343780743974395,-0.199167076816311,0.298248371670845,-0.4609815778423
16.365,-0.844128656615873,0.00217937800094614,0.349196011535558,-0.224511138186325,0.335570693279646,-0.598219899615778
16.37,-0.853002815676512,0.00389175238359214,0.359951773166015,-0.230992913120374,0.363866148347111,-0.545857297715554
16.375,-0.857241946311956,0.021604930735024,0.35912899490151,-0.218191667630964,0.319999654682315,-0.448549492474721
16.38,-0.906519503642403,0.0416409842354934,0.365320102667258,-0.209695545752333,0.243897127625263,-0.495753362230577
16.385,-0.933738122633232,0.0624748989912027,0.372760981597375,-0.222408455417069,0.207680607590184,-0.541989456947542
16.39,-0.96605444269853,0.0867269234226476,0.361445276307433,-0.253222575802418,0.215125899457988,-0.597988439386608
16.395,-0.990672845311298,0.103095322135634,0.359629488229484,-0.290510663409069,0.256762668211296,-0.669864707562779
16.4,-1.02837165238591,0.113034150596115,0.339368262033884,-0.314975329479878,0.302741864706167,-0.722137767841594
16.405,-1.09471713524463,0.126601768500082,0.309604218387069,-0.314045152847098,0.310438847322036,-0.739234798691139
16.41,-1.13892724827219,0.144940958036844,0.267439245713261,-0.300288160488081,0.295279487069994,-0.720908142767561
16.415,-1.18107909987542,0.15514308401888,0.21890823757647,-0.28436618638219,0.259683006054594,-0.670158162126387
16.42,-1.19932625741079,0.150025902481337,0.185461934635642,-0.258332092414667,0.195190221106762,-0.605217512846453
16.425,-1.23533524752664,0.129535238500623,0.141801124634701,-0.23015390127367,0.0825316320608454,-0.505834636473072
